Time (s);Timestamp;Pressure (hPa);Temperature (°C);Altitude (m);Accel_X (m/s²);Accel_Y (m/s²);Accel_Z (m/s²);Gyro_X (°/s);Gyro_Y (°/s);Gyro_Z (°/s);Mag_X (µT);Mag_Y (µT);Mag_Z (µT);GPS_Latitude;GPS_Longitude;GPS_Altitude (m)
0.0;2025-05-11 08:32:00;1015.6478647513554;34.90294545091044;-0.14838273558992698;0.6382960449218746;-0.411802685546875;1.1875240234375;-0.016254211801526718;0.0053292497709923675;-0.0261133238778626;-52.8;-31.2;-44.85;0.0;0.0;0.0
0.0528;2025-05-11 08:32:00;1015.6481309488793;34.90462367741142;-0.15059372809814509;0.4084526855468731;-1.1563994018554686;-0.5770026000976562;-0.03810413586259542;0.018385911709923666;0.013856049404580155;-52.05;-30.45;-45.6;0.0;0.0;0.0
0.0915;2025-05-11 08:32:01;1015.6481309488793;34.90462367741142;-0.15059372809814509;0.31029041748046815;-2.6767174560546874;-0.8906430175781249;-0.10578560795419849;0.04636447300763359;-0.029577336229007635;-51.15;-28.799999999999997;-45.449999999999996;0.0;0.0;0.0
0.1295;2025-05-11 08:32:01;1015.5568317428666;34.90462367741142;0.6077498603079634;9.511207397460934;0.6967126831054687;0.8714894042968749;-0.3589249720763359;0.11857580740458017;-0.07487595928244276;-51.9;-28.349999999999998;-45.449999999999996;0.0;0.0;0.0
0.1745;2025-05-11 08:32:01;1015.5568317428666;34.90462367741142;0.6077498603079634;17.416861279296874;0.22266075439453123;-3.0526071166992184;0.01279019945038168;0.05275957273282444;-0.1974487040152672;-51.75;-28.2;-45.3;0.0;0.0;0.0
0.2121;2025-05-11 08:32:01;1015.5568317428666;34.90238604207677;0.6077498603079634;38.59836336669921;-0.3806780639648437;0.9624690673828125;-0.9115681733282444;0.13003369441221374;-0.19958040392366413;-51.15;-29.099999999999998;-43.65;0.0;0.0;0.0
0.2459;2025-05-11 08:32:01;1015.5564768306773;34.90238604207677;0.6106979168001458;53.80872651367187;0.12210428466796874;-2.0159177978515626;-1.5041807478625955;0.2552710640305344;0.000799387465648855;-50.25;-28.95;-44.55;0.0;0.0;0.0
0.2883;2025-05-11 08:32:01;1015.5564768306773;34.90238604207677;0.6106979168001458;60.79979536132812;-3.706224169921875;-1.2114660400390624;-3.095494729480916;-0.07567534674809161;0.1684042927633588;-51.75;-30.45;-48.15;0.0;0.0;0.0
0.3269;2025-05-11 08:32:01;1014.8720971652639;34.90238604207677;6.297008340956061;49.56859537353515;5.164292980957031;2.559401574707031;-3.893016957709924;-0.19291884170992368;0.20943951600000002;-51.0;-28.5;-51.15;0.0;0.0;0.0
0.3791;2025-05-11 08:32:01;1014.8720971652639;34.90238604207677;6.297008340956061;40.26951612548827;3.7038299682617186;6.1650692749023435;-3.9212619814961838;-0.2773874505801527;0.08819908370992367;-51.6;-27.15;-50.55;0.0;0.0;0.0
0.4212;2025-05-11 08:32:01;1014.8720971652639;34.90238604207677;6.297008340956061;35.347037512207024;2.01112939453125;-0.7350199096679687;-4.821105805328245;-0.5680980255877862;0.03090964867175573;-51.0;-25.8;-57.0;0.0;0.0;0.0
0.4788;2025-05-11 08:32:01;1014.8755119080181;34.92392328217274;6.26862853615072;31.33435552978515;-0.6272808349609375;-1.3551181396484375;-5.164309490580153;-0.751957142687023;-0.0522266477557252;-50.1;-19.8;-61.5;0.0;0.0;0.0
0.5149;2025-05-11 08:32:01;1014.8755119080181;34.92392328217274;6.26862853615072;29.46208983154296;-0.4572925170898437;-0.3016694091796875;-5.50857902578626;-0.8172404523816794;-0.16893721774045803;-48.3;-15.0;-64.35;0.0;0.0;0.0
0.5553;2025-05-11 08:32:01;1014.7092567643906;34.92392328217274;7.650458850776988;28.305690429687495;0.373495458984375;-0.15322890625;-5.7148209919236646;-0.8905176367328245;-0.17533231746564887;-48.0;-9.6;-66.14999999999999;0.0;0.0;0.0
0.5943;2025-05-11 08:32:01;1014.7092567643906;34.92392328217274;7.650458850776988;24.71917634277343;-2.863465185546875;-0.8044517578125;-6.01112727919084;-1.029877518244275;-0.02211638654961832;-48.15;1.3499999999999999;-67.8;0.0;0.0;0.0
0.6326;2025-05-11 08:32:01;1014.7092567643906;34.92392328217274;7.650458850776988;23.24195391845703;-1.7501614135742187;-0.028730419921875;-6.236288082015268;-1.1460551632519085;0.059421134946564896;-45.9;8.25;-66.6;0.0;0.0;0.0
0.6717;2025-05-11 08:32:01;1014.7084142426637;34.918608898252955;7.657461940443278;22.16695737304687;-3.028665100097656;-0.3495534423828125;-6.279455005160306;-1.2579694084427482;0.2163675407022901;-44.85;16.349999999999998;-62.25;0.0;0.0;0.0
0.7145;2025-05-11 08:32:01;1014.7084142426637;34.918608898252955;7.657461940443278;21.721635864257813;-2.8467057739257813;-0.3112462158203125;-6.369785788778627;-1.3752129034045804;0.3165574363969466;-44.25;21.15;-58.05;0.0;0.0;0.0
0.7527;2025-05-11 08:32:01;1014.3044429446574;34.918608898252955;11.015837366719442;21.54925334472656;-3.6152445068359373;0.5961562133789062;-6.448125760412214;-1.4548851874809163;0.42633998167938936;-41.1;24.15;-50.55;0.0;0.0;0.0
0.7894;2025-05-11 08:32:01;1014.3044429446574;34.918608898252955;11.015837366719442;21.59474317626953;-3.440467785644531;0.4213794921875;-6.426275836351146;-1.512174622519084;0.5041470283358779;-42.15;27.599999999999998;-44.699999999999996;0.0;0.0;0.0
0.8291;2025-05-11 08:32:01;1014.3044429446574;34.918608898252955;11.015837366719442;20.670581335449214;-4.589684582519531;0.11252747802734374;-6.629853177603054;-1.535889784;0.6075344738931299;-43.199999999999996;27.0;-36.9;0.0;0.0;0.0
0.8681;2025-05-11 08:32:01;1014.3039552774136;34.915532149667825;11.019892194553776;20.036117895507807;-5.178658190917968;0.26815058593749996;-6.641311064610688;-1.6531332789618323;0.7402327931908398;-44.1;25.65;-34.05;0.0;0.0;0.0
0.9133;2025-05-11 08:32:01;1014.3039552774136;34.915532149667825;11.019892194553776;19.171811096191405;-4.733336682128906;0.4429273071289062;-6.637580589770993;-1.6936355772213743;0.7538223801068703;-46.35;21.0;-24.3;0.0;0.0;0.0
0.9501;2025-05-11 08:32:01;1013.5898061093496;34.915532149667825;16.959553518505388;20.34975831298828;-4.2688615600585935;1.5586252807617187;-6.461981809816794;-1.660327766152672;0.746361430427481;-47.25;16.2;-20.7;0.0;0.0;0.0
0.9907;2025-05-11 08:32:01;1013.5898061093496;34.915532149667825;16.959553518505388;19.12153286132812;-3.833116857910156;2.2170307373046874;-6.286116567374047;-1.5452159710992368;0.7404992556793893;-49.8;8.4;-18.15;0.0;0.0;0.0
1.0285;2025-05-11 08:32:02;1013.5898061093496;34.90881924366387;16.959553518505388;19.636286218261716;-3.124433166503906;2.518700146484375;-6.256006306167939;-1.369084266167939;0.8033844029770992;-49.65;3.15;-17.25;0.0;0.0;0.0
1.0773;2025-05-11 08:32:02;1013.588742526438;34.90881924366387;16.96840198743418;19.61952680664062;-3.725377783203125;2.473210314941406;-6.281586705068703;-1.1878897739541985;0.9235589853129772;-52.35;-3.5999999999999996;-17.25;0.0;0.0;0.0
1.1247;2025-05-11 08:32:02;1013.588742526438;34.90881924366387;16.96840198743418;19.15265748291015;-3.9169139160156248;2.8730419921875;-6.272793442946566;-1.0309433681984734;1.0533262172366413;-52.8;-10.35;-19.349999999999998;0.0;0.0;0.0
1.1613;2025-05-11 08:32:02;1012.2648631622733;34.90881924366387;27.98823839923;19.380106640624994;-3.0238766967773434;2.6192566162109374;-6.203513195923665;-0.8777274372824428;1.1239387767022901;-53.25;-16.5;-23.7;0.0;0.0;0.0
1.1955;2025-05-11 08:32:02;1012.2648631622733;34.90881924366387;27.98823839923;20.182164196777343;-1.2976572998046874;3.5577836669921874;-6.000735242137405;-0.7226462689465649;1.1487197881374047;-53.55;-22.349999999999998;-29.549999999999997;0.0;0.0;0.0
1.2353;2025-05-11 08:32:02;1012.2648631622733;34.89455431840551;27.98823839923;19.18617630615234;-1.946485949707031;3.0454245117187497;-5.853647948458016;-0.5577059885343512;1.1649739999389315;-53.1;-24.9;-33.75;0.0;0.0;0.0
1.2876;2025-05-11 08:32:02;1012.2626046957384;34.89455431840551;28.007047611926456;19.320251599121093;-1.1013327636718748;2.961627453613281;-5.566667848290077;-0.3674517717099237;1.1548484253740459;-53.25;-27.45;-37.949999999999996;0.0;0.0;0.0
1.3217;2025-05-11 08:32:02;1012.2626046957384;34.89455431840551;28.007047611926456;19.348982019042964;-0.6727706665039062;2.521094348144531;-5.329516233480916;-0.2731240507633588;1.1593782876793894;-51.6;-29.549999999999997;-42.9;0.0;0.0;0.0
1.3694;2025-05-11 08:32:02;1011.1048204683932;34.89455431840551;37.65391198384307;19.686564453125;0.12449848632812499;2.2098481323242187;-4.939415150244275;-0.14015926897709924;1.0802389285801528;-51.0;-31.2;-48.6;0.0;0.0;0.0
1.4061;2025-05-11 08:32:02;1011.1048204683932;34.89455431840551;37.65391198384307;19.669805041503906;1.2521674682617188;1.5538368774414062;-4.752891408259543;-0.05755589752671757;0.9550015589618321;-51.3;-30.9;-54.75;0.0;0.0;0.0
1.4528;2025-05-11 08:32:02;1011.1048204683932;34.89455431840551;37.65391198384307;18.81028664550781;1.8770541015625;1.3742717529296875;-4.520269655755726;-0.017320061755725192;0.6880061454351145;-48.9;-26.849999999999998;-57.449999999999996;0.0;0.0;0.0
1.4902;2025-05-11 08:32:02;1011.1043336586632;34.89147756982037;37.65797004995976;19.344193615722652;3.071760729980469;2.185906115722656;-4.374248212030535;0.10658499541984734;0.3495987849770993;-48.3;-23.55;-61.65;0.0;0.0;0.0
1.5288;2025-05-11 08:32:02;1011.1043336586632;34.89147756982037;37.65797004995976;19.631497814941405;0.7158662963867187;1.43652099609375;-4.206909769221375;0.29817152468702296;0.19798162899236643;-49.5;-19.2;-64.35;0.0;0.0;0.0
1.5707;2025-05-11 08:32:02;1010.450838365994;34.89147756982037;43.1069609777644;19.626709411621093;1.9823989746093749;1.6304513305664061;-4.050229825954199;0.44952221818320615;0.15641348077862596;-49.35;-14.1;-65.25;0.0;0.0;0.0
1.6135;2025-05-11 08:32:02;1010.450838365994;34.89147756982037;43.1069609777644;19.21730092773437;2.3127988037109373;0.023942016601562498;-3.9092711695114506;0.4657764299847329;-0.0261133238778626;-50.4;-11.7;-64.5;0.0;0.0;0.0
1.6495;2025-05-11 08:32:02;1010.450838365994;34.89147756982037;43.1069609777644;19.88767739257812;0.8978256225585937;-0.8954314208984374;-3.7483278264274813;0.34453599769465654;-0.09725880832061069;-48.9;-7.05;-64.5;0.0;0.0;0.0
1.6854;2025-05-11 08:32:02;1010.4504844499573;34.88923993448573;43.10991278237926;20.084001928710933;0.6751648681640625;-1.697488977050781;-3.634015418839695;0.13269831929770992;-0.13003369441221374;-51.3;-3.75;-64.95;0.0;0.0;0.0
1.7241;2025-05-11 08:32:02;1010.4504844499573;34.88923993448573;43.10991278237926;19.566854370117184;-0.009576806640625;-1.905784521484375;-3.4235100528854963;-0.1468208311908397;-0.17959571728244278;-49.05;1.05;-63.15;0.0;0.0;0.0
1.7704;2025-05-11 08:32:02;1009.6493552727552;34.88923993448573;49.793804766563476;19.660228234863276;-0.8906430175781249;-1.0773907470703123;-3.0936294920610687;-0.38530475844274814;-0.15747933073282444;-48.9;4.8;-61.949999999999996;0.0;0.0;0.0
1.7992;2025-05-11 08:32:02;1009.6493552727552;34.88923993448573;49.793804766563476;19.325040002441405;-2.3343466186523436;-0.15322890625;-2.8788607262900765;-0.4484563682290077;-0.02637978636641222;-46.949999999999996;7.6499999999999995;-61.05;0.0;0.0;0.0
1.8522;2025-05-11 08:32:02;1009.6493552727552;34.88923993448573;49.793804766563476;19.753602099609374;-1.9512743530273435;0.6871358764648438;-2.6305176869618325;-0.4316692314503817;0.12390505717557253;-49.65;11.4;-60.0;0.0;0.0;0.0
1.8928;2025-05-11 08:32:02;1009.6507260923988;34.89791077140748;49.78236422923765;19.506999328613276;-1.5011644409179687;1.8076222534179687;-2.448523807282443;-0.31069526164885497;0.2526064391450382;-49.05;14.25;-58.5;0.0;0.0;0.0
1.9385;2025-05-11 08:32:02;1009.6507260923988;34.89791077140748;49.78236422923765;18.659451940917968;-0.6200982299804687;0.9409212524414062;-2.321687662732825;-0.1454885187480916;0.3277488609160306;-49.65;14.399999999999999;-56.85;0.0;0.0;0.0
1.9776;2025-05-11 08:32:02;1008.1351763918204;34.89791077140748;62.43847103634187;8.385932617187498;-1.2018892333984375;2.4109610717773435;-2.0991914847938933;-0.10738438288549619;0.28964472505343514;-48.75;15.45;-54.75;0.0;0.0;0.0
2.0256;2025-05-11 08:32:02;1008.1351763918204;34.89791077140748;62.43847103634187;7.859208251953122;-1.0726023437499999;1.7214309936523438;-1.9886095520458018;-0.09566003338931298;0.46950690482442753;-48.3;16.95;-53.25;0.0;0.0;0.0
2.0599;2025-05-11 08:32:03;1008.1351763918204;34.89791077140748;62.43847103634187;6.089893225097654;-0.39743747558593745;0.9409212524414062;-1.8212711092366414;-0.06368453476335878;0.5097427405954199;-49.5;16.95;-51.9;0.0;0.0;0.0
2.0958;2025-05-11 08:32:03;1008.1339834483883;34.89035875215305;62.448439177263026;0.12114848632812425;-1.6112977172851561;-0.7422025146484375;-1.3171240809007634;0.2153016907480916;0.37224809650381685;-50.25;16.5;-50.699999999999996;0.0;0.0;0.0
2.1369;2025-05-11 08:32:03;1008.1339834483883;34.89035875215305;62.448439177263026;-5.632118103027344;1.8219874633789062;1.9895815795898437;-1.0197519436793894;0.35146402239694663;0.20997244097709925;-50.1;16.349999999999998;-49.5;0.0;0.0;0.0
2.1847;2025-05-11 08:32:03;1008.1339834483883;34.89035875215305;62.448439177263026;-9.029490258789064;1.2401964599609374;0.2825157958984375;-0.8063154903511451;0.42633998167938936;0.029310873740458016;-51.15;14.399999999999999;-46.5;0.0;0.0;0.0
2.2234;2025-05-11 08:32:03;1006.5722849366496;34.89035875215305;75.50606630934354;-13.109209887695313;0.1771709228515625;-1.9512743530273435;-0.4785666294351145;0.24061562716030535;-0.10871669532824428;-49.65;17.55;-45.75;0.0;0.0;0.0
2.2597;2025-05-11 08:32:03;1006.5722849366496;34.89035875215305;75.50606630934354;-12.989499804687501;-0.8164227661132812;-1.9512743530273435;-0.27552221316030534;-0.02131699908396947;-0.2715252758320611;-50.55;17.7;-45.6;0.0;0.0;0.0
2.3135;2025-05-11 08:32:03;1006.573035403305;34.89511372723918;75.49978759160398;-13.195401147460938;0.36152445068359373;-1.448492004394531;-0.11777641993893131;-0.2787197630229008;-0.35359572230534353;-49.05;16.2;-44.55;0.0;0.0;0.0
2.3521;2025-05-11 08:32:03;1006.573035403305;34.89511372723918;75.49978759160398;-12.915279553222657;-1.0726023437499999;0.22026655273437498;0.21157121590839698;-0.4036906701526718;-0.2760551381374046;-48.3;17.4;-47.85;0.0;0.0;0.0
2.3892;2025-05-11 08:32:03;1006.573035403305;34.89511372723918;75.49978759160398;-12.750079638671876;-1.2952630981445312;1.3192051147460937;0.437797868687023;-0.3178897488396947;-0.1742664675114504;-47.25;18.9;-47.4;0.0;0.0;0.0
2.4298;2025-05-11 08:32:03;1007.028183245628;34.89511372723918;71.69252855015368;-12.673465185546876;-1.13006318359375;2.760514514160156;0.6059356989618321;-0.05862174748091603;-0.09885758325190841;-49.05;18.9;-48.9;0.0;0.0;0.0
2.4727;2025-05-11 08:32:03;1007.028183245628;34.89511372723918;71.69252855015368;-12.613610144042969;-0.8882488159179687;1.8291700683593748;0.735170005908397;0.2107718284427481;-0.034107198534351145;-48.15;19.05;-48.0;0.0;0.0;0.0
2.5147;2025-05-11 08:32:03;1007.0295520868067;34.903784564160915;71.6810804537285;-12.62558115234375;-0.8068459594726562;0.7278373046875;0.7626156422290077;0.31762328635114506;0.020251149129770992;-48.9;18.3;-49.5;0.0;0.0;0.0
2.5536;2025-05-11 08:32:03;1007.0295520868067;34.903784564160915;71.6810804537285;-12.54896669921875;-0.5770026000976562;0.40222587890625;0.8420214638167939;0.29737213722137407;0.03090964867175573;-49.5;17.4;-50.699999999999996;0.0;0.0;0.0
2.5993;2025-05-11 08:32:03;1007.0295520868067;34.903784564160915;71.6810804537285;-12.496294262695313;0.0143652099609375;-0.47884033203125;0.825234327038168;0.1902542168244275;-0.0053292497709923675;-48.15;16.8;-50.55;0.0;0.0;0.0
2.6438;2025-05-11 08:32:03;1006.205973783627;34.903784564160915;78.57123109447681;-12.311940734863281;-0.07422025146484375;-0.9624690673828125;0.7900612785496184;0.0021316999083969466;-0.07807350914503818;-48.0;15.75;-51.15;0.0;0.0;0.0
2.6865;2025-05-11 08:32:03;1006.205973783627;34.903784564160915;78.57123109447681;-12.297575524902344;-0.38786066894531246;-0.5482721801757812;0.8502818009618321;-0.15747933073282444;-0.09725880832061069;-48.15;17.55;-52.35;0.0;0.0;0.0
2.7302;2025-05-11 08:32:03;1006.206106192043;34.90462367741142;78.57012298350944;-12.240114685058593;-0.3327940307617187;-0.49320554199218747;0.9136998732366414;-0.21103829093129775;-0.05595712259541985;-48.3;16.5;-52.949999999999996;0.0;0.0;0.0
2.7674;2025-05-11 08:32:03;1006.206106192043;34.90462367741142;78.57012298350944;-12.103645190429688;-0.6631938598632812;-0.0047884033203125;0.90064321129771;-0.26299847619847333;-0.015721286824427482;-50.4;15.899999999999999;-54.15;0.0;0.0;0.0
2.8088;2025-05-11 08:32:03;1006.206106192043;34.90462367741142;78.57012298350944;-12.110827795410156;-0.08140285644531249;0.70868369140625;0.9041072236488551;-0.240882089648855;0.014388974381679392;-48.3;14.25;-55.8;0.0;0.0;0.0
2.8531;2025-05-11 08:32:03;1005.3910488108581;34.90462367741142;85.39348312599165;-11.919291662597656;0.1197100830078125;0.8954314208984374;0.847617176076336;-0.1609433430839695;-0.06634915964885496;-49.65;14.1;-57.9;0.0;0.0;0.0
2.8943;2025-05-11 08:32:03;1005.3910488108581;34.90462367741142;85.39348312599165;-11.931262670898438;-0.51714755859375;0.9528922607421875;0.8401562263969466;-0.05196018526717557;-0.09459418343511453;-48.0;13.799999999999999;-58.05;0.0;0.0;0.0
2.9295;2025-05-11 08:32:03;1005.3924605332764;34.91357421875;85.38166083439586;-11.761274353027344;-0.30885201416015623;0.7876923461914062;0.8023185530229009;0.029843798717557254;-0.11218070767938933;-47.4;12.15;-57.9;0.0;0.0;0.0
2.9694;2025-05-11 08:32:03;1005.3924605332764;34.91357421875;85.38166083439586;-11.725361328125;0.06943184814453125;0.7326257080078125;0.7796692414961833;0.06874732204580153;-0.13829403155725192;-47.25;10.799999999999999;-58.8;0.0;0.0;0.0
3.0183;2025-05-11 08:32:04;1004.660686120122;34.91357421875;91.51161659736947;-11.682265698242189;-0.6177040283203125;0.39983167724609375;0.7967228407633588;0.09672588334351145;-0.1337641692519084;-47.85;10.95;-58.05;0.0;0.0;0.0
3.0624;2025-05-11 08:32:04;1004.660686120122;34.91357421875;91.51161659736947;-11.689448303222656;-0.7278373046875;0.1484405029296875;0.87266465;0.12097396980152673;-0.05915467245801527;-47.85;10.2;-59.699999999999996;0.0;0.0;0.0
3.1004;2025-05-11 08:32:04;1004.660686120122;34.91357421875;91.51161659736947;-11.641564270019531;-0.9744400756835937;0.13646949462890623;0.9211608229160306;0.1289678444580153;-0.004263399816793893;-48.15;10.2;-62.25;0.0;0.0;0.0
3.1268;2025-05-11 08:32:04;1004.6610389084733;34.91581185408465;91.50866047556485;-11.524248388671875;-0.7757213378906249;-0.16998831787109375;0.9648606710381681;0.10045635818320611;0.09379479596946566;-48.6;7.8;-61.199999999999996;0.0;0.0;0.0
3.1649;2025-05-11 08:32:04;1004.6610389084733;34.91581185408465;91.50866047556485;-11.426086120605468;-0.6607996582031249;0.033518823242187495;0.9246248352671756;0.06794793458015268;0.12070750731297711;-47.1;7.05;-61.199999999999996;0.0;0.0;0.0
3.2095;2025-05-11 08:32:04;1003.9881695794046;34.91581185408465;97.14836758069866;-11.404538305664063;-0.507570751953125;-0.32082302246093747;0.9416784345343513;0.016787136778625956;0.1276355320152672;-47.85;7.05;-61.949999999999996;0.0;0.0;0.0
3.2466;2025-05-11 08:32:04;1003.9881695794046;34.91581185408465;97.14836758069866;-11.3805962890625;0.076614453125;-0.33518823242187495;0.9099693983969466;-0.033041348580152674;0.10178867062595422;-49.5;6.8999999999999995;-62.4;0.0;0.0;0.0
3.2839;2025-05-11 08:32:04;1003.9881695794046;34.91581185408465;97.14836758069866;-11.306376037597657;0.0718260498046875;-0.10773907470703124;0.8569433631755726;-0.07221133439694657;0.06288514729770993;-48.9;7.5;-63.0;0.0;0.0;0.0
3.3178;2025-05-11 08:32:04;1003.9903736893742;34.92979707492617;97.12988866449982;-11.20821376953125;0.13168109130859373;0.04548983154296875;0.7783369290534352;-0.10818377035114506;0.00639509972519084;-48.75;3.0;-63.15;0.0;0.0;0.0
3.3645;2025-05-11 08:32:04;1003.9903736893742;34.92979707492617;97.12988866449982;-11.265674609375;0.00239420166015625;-0.028730419921875;0.7639479546717558;-0.12683614454961833;-0.025047473923664125;-48.0;3.4499999999999997;-64.35;0.0;0.0;0.0
3.4031;2025-05-11 08:32:04;1003.9903736893742;34.92979707492617;97.12988866449982;-11.083715283203125;-0.1149216796875;0.3687070556640625;0.7548882300610689;-0.13589586916030535;-0.033307811068702294;-48.9;2.1;-64.05;0.0;0.0;0.0
3.4349;2025-05-11 08:32:04;1003.3721540888288;34.92979707492617;102.31423390094677;-11.047802258300782;-0.12449848632812499;0.36631285400390623;0.7460949679389313;-0.09219602103816796;-0.035173048488549616;-47.85;1.65;-64.8;0.0;0.0;0.0
3.4727;2025-05-11 08:32:04;1003.3721540888288;34.92979707492617;102.31423390094677;-10.98555301513672;-0.3016694091796875;0.4955997436523437;0.7607504048091603;-0.05302603522137405;-0.03837059835114504;-48.15;0.15;-65.25;0.0;0.0;0.0
3.5111;2025-05-11 08:32:04;1003.3722422232032;34.93035648375984;102.3134946280862;-11.01667763671875;-0.2920926025390625;0.5626373901367188;0.764480879648855;-0.014122511893129772;-0.027978561297709925;-47.25;0.3;-66.45;0.0;0.0;0.0
3.5541;2025-05-11 08:32:04;1003.3722422232032;34.93035648375984;102.3134946280862;-10.899361755371094;-0.3112462158203125;0.38786066894531246;0.7687442794656488;0.03677182341984733;-0.015454824335877864;-47.699999999999996;-0.3;-66.14999999999999;0.0;0.0;0.0
3.6111;2025-05-11 08:32:04;1002.7905386888712;34.93035648375984;107.19398073115835;-10.887390747070313;-0.40222587890625;0.3184288208007812;0.7759387666564886;0.06421745974045802;-0.014122511893129772;-48.6;-3.15;-66.6;0.0;0.0;0.0
3.6387;2025-05-11 08:32:04;1002.7905386888712;34.93035648375984;107.19398073115835;-10.856266125488283;-0.5674257934570313;0.076614453125;0.7991210031603054;0.05462481015267176;0.0013323124427480919;-47.25;-2.6999999999999997;-66.89999999999999;0.0;0.0;0.0
3.6791;2025-05-11 08:32:04;1002.7905386888712;34.93035648375984;107.19398073115835;-10.74852705078125;-0.3711012573242187;0.0383072265625;0.8167075274045802;0.04583154803053435;0.018918836687022902;-48.15;-4.05;-66.3;0.0;0.0;0.0
3.7195;2025-05-11 08:32:04;1002.7911554317953;34.934272345595474;107.18880505118165;-10.74852705078125;-0.41898529052734373;-0.011971008300781249;0.8175069148702291;0.028777948763358784;0.04369984812213741;-48.75;-3.75;-66.45;0.0;0.0;0.0
3.7616;2025-05-11 08:32:04;1002.7911554317953;34.934272345595474;107.18880505118165;-10.722190832519532;-0.3902548706054687;0.0047884033203125;0.8047167154198474;-0.005062787282442748;0.05968759743511451;-45.6;-7.05;-66.6;0.0;0.0;0.0
3.7998;2025-05-11 08:32:04;1002.7911554317953;34.934272345595474;107.18880505118165;-10.67191259765625;-0.469263525390625;-0.09576806640624999;0.8031179404885497;-0.021583461572519086;0.05888820996946566;-48.3;-6.1499999999999995;-66.89999999999999;0.0;0.0;0.0
3.8394;2025-05-11 08:32:04;1002.2638531303086;34.934272345595474;111.61484442305553;-10.542625708007813;-0.43574470214843747;-0.229843359375;0.777804004076336;-0.04716386047328244;0.05329249770992367;-48.3;-6.8999999999999995;-67.2;0.0;0.0;0.0
3.8853;2025-05-11 08:32:04;1002.2638531303086;34.934272345595474;111.61484442305553;-10.5378373046875;-0.41419688720703124;-0.1580173095703125;0.7855314162442749;-0.08766615873282443;0.06581623467175574;-47.4;-8.7;-67.8;0.0;0.0;0.0
3.9187;2025-05-11 08:32:04;1002.2638531303086;34.93539116326279;111.61484442305553;-10.523472094726563;-0.47644613037109373;-0.22505495605468748;0.7668790420458016;-0.10738438288549619;0.10205513311450383;-48.0;-9.15;-66.45;0.0;0.0;0.0
3.9639;2025-05-11 08:32:04;1002.2640292913845;34.93539116326279;111.61336545765322;-10.504318481445313;-0.2920926025390625;-0.2154781494140625;0.7618162547633588;-0.13829403155725192;0.1494854560763359;-47.699999999999996;-11.549999999999999;-67.5;0.0;0.0;0.0
4.0117;2025-05-11 08:32:05;1002.2640292913845;34.93539116326279;111.61336545765322;-10.4612228515625;-0.3184288208007812;0.07900865478515624;0.7532894551297711;-0.15881164317557253;0.17693109239694657;-46.199999999999996;-11.549999999999999;-66.89999999999999;0.0;0.0;0.0
4.0464;2025-05-11 08:32:05;1001.7693976211968;34.93539116326279;115.7668895852424;-10.394185205078125;-0.3687070556640625;-0.0047884033203125;0.7375681683053437;-0.16627259285496185;0.17320061755725194;-46.199999999999996;-13.5;-66.89999999999999;0.0;0.0;0.0
4.0842;2025-05-11 08:32:05;1001.7693976211968;34.93539116326279;115.7668895852424;-10.418127221679688;-0.3136404174804687;0.16280571289062498;0.7423644930992367;-0.15215008096183208;0.1918529917557252;-47.25;-14.25;-67.2;0.0;0.0;0.0
4.1355;2025-05-11 08:32:05;1001.7694416494647;34.93567086767963;115.76651979690389;-10.379819995117188;-0.16759411621093748;0.2825157958984375;0.7389004807480917;-0.11857580740458017;0.18412557958778628;-46.949999999999996;-16.95;-66.45;0.0;0.0;0.0
4.18;2025-05-11 08:32:05;1001.7694416494647;34.93567086767963;115.76651979690389;-10.303205541992188;-0.19153613281249998;0.11731588134765625;0.7399663307022901;-0.0842021463816794;0.18359265461068705;-46.65;-15.899999999999999;-67.35;0.0;0.0;0.0
4.2158;2025-05-11 08:32:05;1001.7694416494647;34.93567086767963;115.76651979690389;-10.293628735351563;0.0526724365234375;0.2657563842773437;0.7215804189923665;-0.05275957273282444;0.17240123009160307;-46.35;-17.849999999999998;-67.8;0.0;0.0;0.0
4.2565;2025-05-11 08:32:05;1001.3495575505364;34.93567086767963;119.29367635241911;-10.248138903808595;0.24899697265624998;0.1292868896484375;0.6493690845954199;-0.028511486274809164;0.13136600685496183;-46.35;-20.55;-67.05;0.0;0.0;0.0
4.2897;2025-05-11 08:32:05;1001.3495575505364;34.93567086767963;119.29367635241911;-10.264898315429688;0.26815058593749996;-0.040701428222656245;0.6014058366564886;-0.02131699908396947;0.07061255946564887;-46.199999999999996;-21.15;-66.89999999999999;0.0;0.0;0.0
4.3352;2025-05-11 08:32:05;1001.3508340749363;34.943782295767704;119.28295133715234;-10.195466467285156;-0.0047884033203125;0.009576806640625;0.5795559125954199;-0.014388974381679392;0.0319754986259542;-45.449999999999996;-21.599999999999998;-65.7;0.0;0.0;0.0
4.3737;2025-05-11 08:32:05;1001.3508340749363;34.943782295767704;119.28295133715234;-10.145188232421875;-0.12689268798828124;-0.028730419921875;0.5398530018015268;-0.019984686641221373;-0.00159877493129771;-45.449999999999996;-22.349999999999998;-66.89999999999999;0.0;0.0;0.0
4.418;2025-05-11 08:32:05;1001.3508340749363;34.943782295767704;119.28295133715234;-10.128428820800782;-0.2442085693359375;-0.033518823242187495;0.529194502259542;-0.05196018526717557;-0.0013323124427480919;-45.75;-23.849999999999998;-66.14999999999999;0.0;0.0;0.0
4.4617;2025-05-11 08:32:05;1000.9704715568341;34.943782295767704;122.4791449966255;-10.140399829101563;-0.19871873779296872;0.086191259765625;0.5318591271450381;-0.06368453476335878;-0.0026646248854961837;-46.949999999999996;-25.05;-63.9;0.0;0.0;0.0
4.4926;2025-05-11 08:32:05;1000.9704715568341;34.943782295767704;122.4791449966255;-10.140399829101563;-0.3327940307617187;-0.00239420166015625;0.5196018526717557;-0.06368453476335878;-0.0005329249770992366;-45.15;-24.9;-64.8;0.0;0.0;0.0
4.5385;2025-05-11 08:32:05;1000.9704715568341;34.943782295767704;122.4791449966255;-10.099698400878907;-0.48123453369140623;0.086191259765625;0.512407365480916;-0.06341807227480917;0.014655436870229008;-46.949999999999996;-23.099999999999998;-62.099999999999994;0.0;0.0;0.0
4.5874;2025-05-11 08:32:05;1000.9709556542736;34.94685904435285;122.47507649143078;-10.013507141113282;-0.63206923828125;0.15562310791015624;0.5646340132366413;-0.05329249770992367;0.06128637236641222;-44.85;-24.45;-66.3;0.0;0.0;0.0
4.6355;2025-05-11 08:32:05;1000.9709556542736;34.94685904435285;122.47507649143078;-10.037449157714844;-0.5243301635742187;0.11252747802734374;0.583019924946565;-0.03970291079389313;0.1001898956946565;-45.0;-25.05;-63.9;0.0;0.0;0.0
4.6711;2025-05-11 08:32:05;1000.9709556542736;34.94685904435285;122.47507649143078;-10.025478149414063;-0.5243301635742187;0.33518823242187495;0.5888820996946565;-0.017053599267175572;0.1390934190229008;-44.85;-25.65;-64.5;0.0;0.0;0.0
4.7071;2025-05-11 08:32:05;1000.6710224523341;34.94685904435285;124.996113602823;-9.951257897949219;-0.5865794067382812;0.41898529052734373;0.603271074076336;0.02105053659541985;0.19291884170992368;-45.75;-27.0;-62.099999999999994;0.0;0.0;0.0
4.7456;2025-05-11 08:32:05;1000.6710224523341;34.94685904435285;124.996113602823;-10.011112939453126;-0.5602431884765625;0.35194764404296874;0.6400428974961833;0.07887289661068704;0.21103829093129775;-44.4;-28.349999999999998;-61.949999999999996;0.0;0.0;0.0
4.7855;2025-05-11 08:32:05;1000.6706704396515;34.94462140901821;124.99907274452299;-9.922527478027344;-0.48123453369140623;0.39264907226562495;0.6842756705954199;0.12523736961832063;0.23715161480916033;-45.449999999999996;-28.5;-62.4;0.0;0.0;0.0
4.8272;2025-05-11 08:32:05;1000.6706704396515;34.94462140901821;124.99907274452299;-9.912950671386719;-0.603338818359375;0.46686932373046874;0.7047932822137406;0.17986217977099236;0.2683277259694657;-44.699999999999996;-29.7;-60.3;0.0;0.0;0.0
4.884;2025-05-11 08:32:05;1000.6706704396515;34.94462140901821;124.99907274452299;-9.915344873046875;-0.5865794067382812;0.2154781494140625;0.7141194693129771;0.20864012853435115;0.2861807127022901;-43.949999999999996;-31.95;-59.849999999999994;0.0;0.0;0.0
4.9192;2025-05-11 08:32:05;1000.3535958364258;34.94462140901821;127.66485510498418;-9.910556469726563;-0.5051765502929687;0.15322890625;0.7274425937404582;0.2382174647633588;0.3189555987938931;-44.699999999999996;-32.85;-59.55;0.0;0.0;0.0
4.9575;2025-05-11 08:32:05;1000.3535958364258;34.94462140901821;127.66485510498418;-9.819576806640626;-0.5626373901367188;0.00718260498046875;0.7237121189007635;0.25500460154198473;0.35972435954198473;-44.699999999999996;-31.95;-57.3;0.0;0.0;0.0
4.9984;2025-05-11 08:32:05;1000.3535958364258;34.955529881274614;127.66485510498418;-9.860278234863282;-0.38786066894531246;-0.040701428222656245;0.7085237570534352;0.25766922642748097;0.383972446;-44.1;-34.949999999999996;-57.449999999999996;0.0;0.0;0.0
5.0364;2025-05-11 08:32:06;1000.3553115984505;34.955529881274614;127.65042811584716;-9.85548983154297;-0.41898529052734373;-0.1005564697265625;0.7253108938320612;0.2526064391450382;0.39249924563358785;-43.949999999999996;-35.55;-55.8;0.0;0.0;0.0
5.0813;2025-05-11 08:32:06;1000.3553115984505;34.955529881274614;127.65042811584716;-9.845913024902345;-0.27293898925781246;-0.1484405029296875;0.7143859318015268;0.2307565150839695;0.39196632065648856;-42.75;-37.05;-54.449999999999996;0.0;0.0;0.0
5.1215;2025-05-11 08:32:06;1000.1203282951692;34.955529881274614;129.62647234866597;-9.79084638671875;-0.296881005859375;0.0;0.6938683201832062;0.20917305351145038;0.38770292083969465;-44.1;-37.199999999999996;-54.15;0.0;0.0;0.0
5.1547;2025-05-11 08:32:06;1000.1203282951692;34.955529881274614;129.62647234866597;-9.766904370117189;-0.22505495605468748;-0.15083470458984374;0.6664226838625955;0.18945482935877864;0.37864319622900766;-43.949999999999996;-39.3;-53.25;0.0;0.0;0.0
5.1955;2025-05-11 08:32:06;1000.1203282951692;34.955529881274614;129.62647234866597;-9.783663781738282;-0.3232172241210937;-0.0430956298828125;0.6645574464427482;0.17506585497709926;0.38210720858015274;-44.25;-39.0;-51.449999999999996;0.0;0.0;0.0
5.2308;2025-05-11 08:32:06;1000.1213840120136;34.962242787278555;129.61759367222476;-9.754933361816407;-0.2825157958984375;-0.05746083984375;0.6584288092061069;0.1684042927633588;0.38557122093129775;-41.699999999999996;-40.5;-51.15;0.0;0.0;0.0
5.2673;2025-05-11 08:32:06;1000.1213840120136;34.962242787278555;129.61759367222476;-9.685501513671875;-0.17956512451171874;0.016759411621093748;0.6443062973129772;0.17053599267175576;0.3932986330992367;-43.199999999999996;-39.3;-49.65;0.0;0.0;0.0
5.3121;2025-05-11 08:32:06;1000.1213840120136;34.962242787278555;129.61759367222476;-9.668742102050782;-0.11731588134765625;-0.10295067138671875;0.6283185480000001;0.1638744304580153;0.39276570812213746;-40.949999999999996;-40.5;-49.35;0.0;0.0;0.0
5.3398;2025-05-11 08:32:06;999.9256615632974;34.962242787278555;131.2637673204754;-9.704655126953126;-0.17477672119140625;0.05985504150390625;0.568364488076336;0.15561409331297713;0.37544564636641226;-41.25;-42.9;-46.8;0.0;0.0;0.0
5.3789;2025-05-11 08:32:06;999.9256615632974;34.962242787278555;131.2637673204754;-9.659165295410157;-0.258573779296875;0.10295067138671875;0.5561072136030535;0.16200919303816794;0.37464625890076336;-42.75;-43.199999999999996;-47.4;0.0;0.0;0.0
5.4232;2025-05-11 08:32:06;999.9261453813339;34.96531953586367;131.25969772364107;-9.63761748046875;-0.27293898925781246;0.14604630126953125;0.5523767387633588;0.18252680465648854;0.369317009129771;-40.35;-41.85;-45.449999999999996;0.0;0.0;0.0
5.4566;2025-05-11 08:32:06;999.9261453813339;34.96531953586367;131.25969772364107;-9.616069665527345;-0.16519991455078123;0.062249243164062495;0.5518438137862596;0.19584992908396948;0.36398775935877864;-39.75;-42.449999999999996;-45.3;0.0;0.0;0.0
5.501;2025-05-11 08:32:06;999.9261453813339;34.96531953586367;131.25969772364107;-9.56100302734375;-0.18435352783203124;0.040701428222656245;0.5337243645648856;0.19531700410687025;0.3541286472824428;-38.699999999999996;-45.6;-43.05;0.0;0.0;0.0
5.5378;2025-05-11 08:32:06;999.7605701162711;34.96531953586367;132.6525139658589;-9.659165295410157;-0.2059013427734375;0.086191259765625;0.5174701527633588;0.20437672871755727;0.3519969473740458;-39.449999999999996;-45.15;-42.75;0.0;0.0;0.0
5.5787;2025-05-11 08:32:06;999.7605701162711;34.96531953586367;132.6525139658589;-9.668742102050782;-0.27293898925781246;0.16041151123046873;0.488692204;0.23155590254961836;0.3485329350229008;-38.25;-47.1;-41.25;0.0;0.0;0.0
5.6236;2025-05-11 08:32:06;999.7612737873907;34.969794806532974;132.64659430148717;-9.623252270507813;-0.3112462158203125;0.13168109130859373;0.4918897538625955;0.25926800135877864;0.34613477262595427;-38.1;-44.55;-39.3;0.0;0.0;0.0
5.659;2025-05-11 08:32:06;999.7612737873907;34.969794806532974;132.64659430148717;-9.575368237304687;-0.35194764404296874;0.19632453613281248;0.49535376621374055;0.28085146293129776;0.3525298723511451;-37.949999999999996;-46.65;-37.65;0.0;0.0;0.0
5.7005;2025-05-11 08:32:06;999.7612737873907;34.969794806532974;132.64659430148717;-9.604098657226563;-0.3136404174804687;0.13646949462890623;0.4854946541374046;0.2936416623816794;0.3666523842442748;-38.1;-47.25;-38.55;0.0;0.0;0.0
5.7446;2025-05-11 08:32:06;999.6361837073143;34.969794806532974;133.69897313462099;-9.501147985839845;-0.3399766357421875;0.2537853759765625;0.4849617291603054;0.31629097390839694;0.3759785713435115;-38.1;-48.0;-36.6;0.0;0.0;0.0
5.7948;2025-05-11 08:32:06;999.6361837073143;34.969794806532974;133.69897313462099;-9.527484204101563;-0.3854664672851562;0.22026655273437498;0.5052128782900764;0.34400307271755726;0.3975620329160306;-34.949999999999996;-48.3;-36.9;0.0;0.0;0.0
5.8295;2025-05-11 08:32:06;999.6378987874407;34.98070327878938;133.68454349955778;-9.587339245605468;-0.39743747558593745;0.2705447875976562;0.5227994025343512;0.35572742221374054;0.40715468250381687;-34.199999999999996;-49.8;-33.15;0.0;0.0;0.0
5.8609;2025-05-11 08:32:06;999.6378987874407;34.98070327878938;133.68454349955778;-9.565791430664063;-0.35673604736328124;0.27293898925781246;0.5542419761832061;0.3874364583511451;0.41594794462595425;-33.9;-49.05;-32.85;0.0;0.0;0.0
5.9046;2025-05-11 08:32:06;999.6378987874407;34.98070327878938;133.68454349955778;-9.553820422363282;-0.36152445068359373;0.3232172241210937;0.5638346257709924;0.4138162447175573;0.42181011937404583;-33.449999999999996;-48.6;-31.049999999999997;0.0;0.0;0.0
5.939;2025-05-11 08:32:06;999.5453633385549;34.98070327878938;134.46310880019314;-9.582550842285157;-0.28730419921875;0.5099649536132812;0.5728943503816795;0.44659113080916035;0.41594794462595425;-32.85;-49.949999999999996;-30.15;0.0;0.0;0.0
5.9714;2025-05-11 08:32:06;999.5453633385549;34.98070327878938;134.46310880019314;-9.515513195800782;-0.40462008056640625;0.4285620971679687;0.5910137996030536;0.47696785450381685;0.4103522323664122;-31.049999999999997;-49.949999999999996;-30.15;0.0;0.0;0.0
6.0162;2025-05-11 08:32:07;999.5456271835814;34.98238150529035;134.46088880491732;-9.462840759277345;-0.48123453369140623;0.5434837768554687;0.6163277360152672;0.5036141033587787;0.4047565201068703;-30.15;-49.8;-28.05;0.0;0.0;0.0
6.0538;2025-05-11 08:32:07;999.5456271835814;34.98238150529035;134.46088880491732;-9.520301599121094;-0.4740519287109375;0.5578489868164063;0.643773372335878;0.5286615772824428;0.4004931202900764;-30.15;-49.5;-27.0;0.0;0.0;0.0
6.0879;2025-05-11 08:32:07;999.5456271835814;34.98238150529035;134.46088880491732;-9.479600170898438;-0.39983167724609375;0.6081272216796875;0.6392435100305344;0.5513108888091603;0.3909004707022901;-28.05;-47.25;-25.349999999999998;0.0;0.0;0.0
6.1424;2025-05-11 08:32:07;999.4995553585348;34.98238150529035;134.84854489646122;-9.462840759277345;-0.38786066894531246;0.8044517578125;0.6363124226564887;0.5734272753587787;0.37464625890076336;-29.4;-50.55;-22.2;0.0;0.0;0.0
6.1934;2025-05-11 08:32:07;999.4995553585348;34.98238150529035;134.84854489646122;-9.496359582519531;-0.5123591552734374;0.7278373046875;0.6333813352824428;0.6107320237557252;0.3501317099541985;-27.3;-48.449999999999996;-23.849999999999998;0.0;0.0;0.0
6.23;2025-05-11 08:32:07;999.4995553585348;34.98238150529035;134.84854489646122;-9.436504541015626;-0.507570751953125;0.6727706665039062;0.5577059885343512;0.6384441225648856;0.3402725978778626;-27.3;-48.9;-20.55;0.0;0.0;0.0
6.2598;2025-05-11 08:32:07;999.4995553585348;34.98238150529035;134.84854489646122;-9.539455212402345;-0.55545478515625;0.6823474731445313;0.47989894187786264;0.6491026221068703;0.3304134858015268;-27.45;-45.9;-20.099999999999998;0.0;0.0;0.0
6.305;2025-05-11 08:32:07;999.4995553585348;34.98238150529035;134.84854489646122;-9.462840759277345;-0.36631285400390623;0.7852981445312499;0.37811027125190844;0.6499020095725191;0.3282817858931298;-24.3;-47.25;-19.05;0.0;0.0;0.0
6.3554;2025-05-11 08:32:07;999.4503042049658;34.98238150529035;135.26296839443668;-9.517907397460938;-0.3447650390625;0.9552864624023437;0.2651301761068703;0.6389770475419848;0.3450689226717557;-21.599999999999998;-48.3;-16.8;0.0;0.0;0.0
6.3996;2025-05-11 08:32:07;999.4503042049658;34.98238150529035;135.26296839443668;-9.470023364257813;-0.5865794067382812;1.0510545288085937;0.12736906952671756;0.6349801102137406;0.3807748961374046;-22.349999999999998;-47.55;-17.099999999999998;0.0;0.0;0.0
6.4379;2025-05-11 08:32:07;999.4503042049658;34.98238150529035;135.26296839443668;-9.49157117919922;-0.7038952880859375;1.0893617553710937;0.03543951097709924;0.6240551481832062;0.4135497822290077;-19.349999999999998;-48.3;-16.349999999999998;0.0;0.0;0.0
6.4876;2025-05-11 08:32:07;999.4512276140517;34.98825529804381;135.2551982228351;-9.493965380859375;-0.6153098266601562;1.2928688964843749;0.01279019945038168;0.6101990987786261;0.4684410548702291;-20.849999999999998;-49.8;-14.549999999999999;0.0;0.0;0.0
6.5127;2025-05-11 08:32:07;999.4512276140517;34.98825529804381;135.2551982228351;-9.450869750976564;-1.0989385620117187;1.1276689819335937;-0.026646248854961835;0.6115314112213741;0.4644441175419848;-18.599999999999998;-49.8;-14.549999999999999;0.0;0.0;0.0
6.553;2025-05-11 08:32:07;999.4933295537886;34.98825529804381;134.90093097531653;-9.44608134765625;-1.3766659545898436;1.1468225952148436;-0.21050536595419847;0.6128637236641222;0.42607351919083974;-15.45;-46.949999999999996;-15.149999999999999;0.0;0.0;0.0
6.593;2025-05-11 08:32:07;999.4933295537886;34.98825529804381;134.90093097531653;-9.467629162597657;-1.2401964599609374;1.3407529296874998;-0.31975498625954196;0.6179265109465649;0.38530475844274814;-17.25;-47.25;-16.5;0.0;0.0;0.0
6.6387;2025-05-11 08:32:07;999.4933295537886;34.98825529804381;134.90093097531653;-9.37664949951172;-1.3072341064453123;1.5586252807617187;-0.5262634148854962;0.6323154853282443;0.33494334810687026;-15.0;-47.699999999999996;-16.5;0.0;0.0;0.0
6.6824;2025-05-11 08:32:07;999.4938132554843;34.99133204662894;134.8968609321455;-9.381437902832031;-1.5658078857421873;1.2737152832031249;-0.8356263640916032;0.6464379972213741;0.28964472505343514;-13.2;-49.949999999999996;-17.7;0.0;0.0;0.0
6.7199;2025-05-11 08:32:07;999.4938132554843;34.99133204662894;134.8968609321455;-9.393408911132813;-2.0063409912109376;1.2904746948242187;-1.1026217776183207;0.6722848586106871;0.22276264042748095;-12.75;-48.9;-18.75;0.0;0.0;0.0
6.7587;2025-05-11 08:32:07;999.4938132554843;34.99133204662894;134.8968609321455;-9.168353955078125;-2.5474305664062498;1.120486376953125;-1.3315130552824428;0.6808116582442749;0.17240123009160307;-11.549999999999999;-51.75;-21.15;0.0;0.0;0.0
6.8038;2025-05-11 08:32:07;999.500962496284;34.99133204662894;134.83670478836467;-8.74458026123047;-2.999934680175781;0.718260498046875;-1.1290015639847328;0.7191822565954199;0.1468208311908397;-11.7;-53.85;-24.3;0.0;0.0;0.0
6.8427;2025-05-11 08:32:07;999.500962496284;34.99133204662894;134.83670478836467;-6.764575488281251;-2.501940734863281;1.426944189453125;-1.2164012602290077;0.8779938997709924;0.20490965369465652;-9.0;-52.65;-26.849999999999998;0.0;0.0;0.0
6.8807;2025-05-11 08:32:07;999.500962496284;34.99133204662894;134.83670478836467;-6.36953221435547;-2.7724855224609373;1.0295067138671874;-0.8937151865954199;0.7599510173435114;0.09326187099236641;-10.5;-52.35;-28.65;0.0;0.0;0.0
6.9166;2025-05-11 08:32:07;999.500962496284;34.99133204662894;134.83670478836467;-7.765351782226563;-2.779668127441406;0.28490999755859375;-0.16174273054961835;0.7759387666564886;-0.05355896019847329;-10.2;-52.65;-30.15;0.0;0.0;0.0
6.9541;2025-05-11 08:32:07;999.500962496284;34.99133204662894;134.83670478836467;-10.233773693847656;-3.897760302734375;0.3495534423828125;0.6107320237557252;0.7543553050839695;-0.05755589752671757;-10.049999999999999;-54.0;-29.25;0.0;0.0;0.0
6.9923;2025-05-11 08:32:08;999.500962496284;34.99133204662894;134.83670478836467;-21.848045947265625;-12.23915888671875;1.429338391113281;1.463411987114504;0.7895283535725192;-0.10418683302290078;-10.049999999999999;-52.949999999999996;-27.0;0.0;0.0;0.0
7.042;2025-05-11 08:32:08;999.500962496284;35.00168111005168;134.83670478836467;-8.332777575683593;-1.5705962890624998;-1.1875240234375;2.0056631513129775;0.7474272803816794;-0.5227994025343512;-10.049999999999999;-52.5;-24.0;0.0;0.0;0.0
7.0778;2025-05-11 08:32:08;999.500962496284;35.00168111005168;134.83670478836467;-6.422204650878907;-5.738901379394531;5.530605834960937;3.321454919770993;0.4196784194656489;-0.8558775132213741;-10.5;-50.85;-18.45;0.0;0.0;0.0
7.1199;2025-05-11 08:32:08;999.500962496284;35.00168111005168;134.83670478836467;-6.40783944091797;-5.149927770996094;5.6407391113281244;4.746762771022901;-0.13109954436641222;-1.0645176417557254;-11.85;-46.35;-12.0;0.0;0.0;0.0
7.1548;2025-05-11 08:32:08;1000.2149169629222;35.00168111005168;128.83100300980757;-8.672754211425781;-2.3319524169921872;5.456385583496093;5.194952676763359;-0.5896814871603054;-0.9608637337099238;-14.1;-42.15;-5.3999999999999995;0.0;0.0;0.0
7.1895;2025-05-11 08:32:08;1000.2149169629222;35.00168111005168;128.83100300980757;-10.243350500488281;-2.0446482177734375;4.747701892089843;4.797923568824428;-0.7895283535725192;-0.7991210031603054;-14.85;-33.6;1.3499999999999999;0.0;0.0;0.0
7.2313;2025-05-11 08:32:08;1000.2149169629222;35.00168111005168;128.83100300980757;-10.152370837402344;0.086191259765625;5.121197351074218;4.625788801221375;-0.9259571477099238;-0.6413752099389313;-18.0;-21.75;6.3;0.0;0.0;0.0
7.2746;2025-05-11 08:32:08;1000.2192720044777;35.02937184731792;128.79437956045544;-10.145188232421875;-0.20829554443359374;5.741295581054687;4.81790825546565;-1.085568178351145;-0.4687075173587787;-20.4;-13.799999999999999;6.1499999999999995;0.0;0.0;0.0
7.3145;2025-05-11 08:32:08;1000.2192720044777;35.02937184731792;128.79437956045544;-10.173918652343751;4.127603662109375;4.376600634765625;5.458750540427482;-1.2361194843816794;-0.17186830511450385;-21.3;-4.05;6.75;0.0;0.0;0.0
7.3562;2025-05-11 08:32:08;1000.2518209536211;35.02937184731792;128.52066529863458;-10.12364041748047;1.8507178833007811;5.307945080566406;6.275191605343512;-1.2998040191450382;0.18972129184732828;-24.45;6.45;4.35;0.0;0.0;0.0
7.3971;2025-05-11 08:32:08;1000.2518209536211;35.02937184731792;128.52066529863458;-10.080544787597656;3.892971899414062;3.229778039550781;7.208076777755726;-1.330713667816794;0.608067398870229;-27.15;17.7;-2.1;0.0;0.0;0.0
7.4432;2025-05-11 08:32:08;1000.2518209536211;35.02937184731792;128.52066529863458;-9.989565124511719;6.153098266601562;1.9608511596679685;7.346637271801527;-1.2017458233587788;1.1226064642595421;-28.95;27.45;-10.2;0.0;0.0;0.0
7.4813;2025-05-11 08:32:08;1000.2741684363579;35.17146169106792;128.3327425241402;-9.941681091308594;6.892906579589844;0.12689268798828124;6.237620394458015;-0.8065819528396947;1.5649341952519085;-31.349999999999998;32.25;-17.7;0.0;0.0;0.0
7.5212;2025-05-11 08:32:08;1000.2741684363579;35.17146169106792;128.3327425241402;-9.716626135253907;6.4284314575195305;-0.4477157104492187;5.330315620946566;-0.11377948261068704;1.7674456865496184;-35.4;33.9;-31.049999999999997;0.0;0.0;0.0
7.5608;2025-05-11 08:32:08;999.9399000416889;35.17146169106792;131.14400216179013;-9.661559497070312;5.971138940429687;-1.7812860351562498;5.122741342366412;0.488692204;1.815941859465649;-38.1;31.799999999999997;-38.55;0.0;0.0;0.0
7.5985;2025-05-11 08:32:08;999.9399000416889;35.17146169106792;131.14400216179013;-9.934498486328126;4.331110803222656;-4.189852905273438;5.291945022595421;1.3088637437557253;1.7173507387022902;-40.949999999999996;28.95;-46.8;0.0;0.0;0.0
7.6334;2025-05-11 08:32:08;999.9399000416889;35.17146169106792;131.14400216179013;-9.829153613281251;2.5546131713867184;-13.306972827148437;4.89464945216794;3.0163553703816794;1.2273262222595422;-43.199999999999996;23.55;-50.4;0.0;0.0;0.0
7.6702;2025-05-11 08:32:08;999.9587687510866;35.291454885888285;130.98529252849778;-9.886614453125;3.6918589599609373;-13.939042065429687;3.480000100458015;4.89438298967939;0.4609801051908397;-44.1;21.45;-50.25;0.0;0.0;0.0
7.7105;2025-05-11 08:32:08;999.9587687510866;35.291454885888285;130.98529252849778;-11.01667763671875;0.5339069702148437;-13.249511987304686;2.1498193576183207;6.051096652473283;-0.018119449221374047;-47.85;19.8;-44.4;0.0;0.0;0.0
7.7503;2025-05-11 08:32:08;999.9587687510866;35.291454885888285;130.98529252849778;-8.857107739257813;3.77326181640625;-10.194510668945313;0.11244717016793894;7.609902210488551;-0.31975498625954196;-47.1;21.75;-37.8;0.0;0.0;0.0
7.7898;2025-05-11 08:32:08;1000.3708387280944;35.291454885888285;127.51986911972187;-6.685566833496095;5.425260961914062;-6.248866333007812;-1.326450268;8.337611266717557;0.06475038471755726;-44.25;19.2;-24.0;0.0;0.0;0.0
7.8352;2025-05-11 08:32:08;1000.3708387280944;35.291454885888285;127.51986911972187;-0.340932434082033;7.271190441894531;4.477157104492187;-1.2579694084427482;7.802821052198474;1.130333876427481;-39.6;18.3;-11.85;0.0;0.0;0.0
7.8821;2025-05-11 08:32:08;1000.3772617051648;35.33229173074557;127.46586235810929;23.5771421508789;13.429077111816406;39.54742302246093;6.480634184015268;0.5233323275114504;3.4339020899389316;-35.4;17.7;-3.9;0.0;0.0;0.0
7.9232;2025-05-11 08:32:08;1000.3772617051648;35.33229173074557;127.46586235810929;12.616486950683592;9.739612353515625;16.321272717285154;8.731176362305344;-4.131234422473283;6.9610660508702304;-44.699999999999996;24.3;-26.25;0.0;0.0;0.0
7.9616;2025-05-11 08:32:08;1000.3772617051648;35.33229173074557;127.46586235810929;23.325750976562496;-1.599326708984375;1.7908628417968748;8.731176362305344;-0.6203246733435115;8.480168698091605;-53.1;10.5;-40.35;0.0;0.0;0.0
8.006;2025-05-11 08:32:09;1000.8879856388904;35.33229173074557;123.17240552748693;17.883730603027338;-16.646884143066405;9.64623848876953;8.731176362305344;2.302235901068703;2.962263485206107;-56.699999999999996;-4.8;-45.449999999999996;0.0;0.0;0.0
8.0447;2025-05-11 08:32:09;1000.8879856388904;35.33229173074557;123.17240552748693;8.069897998046875;-1.6927005737304686;9.916783276367187;8.731176362305344;1.20787446059542;0.23182236503816794;-57.449999999999996;-14.399999999999999;-37.8;0.0;0.0;0.0
8.0966;2025-05-11 08:32:09;1000.8929142409734;35.36361862543062;123.13098133570567;4.686891052246093;6.6510922119140625;1.4101847778320311;8.731176362305344;0.20730781609160306;0.5339908270534351;-57.449999999999996;-10.95;-33.0;0.0;0.0;0.0
8.1318;2025-05-11 08:32:09;1000.8929142409734;35.36361862543062;123.13098133570567;2.6685790527343745;5.4707507934570305;-6.600813977050781;8.731176362305344;1.070912741480916;1.0008331069923664;-56.699999999999996;-4.8;-30.15;0.0;0.0;0.0
8.1735;2025-05-11 08:32:09;1000.8929142409734;35.36361862543062;123.13098133570567;2.627877624511717;2.1116858642578125;-5.911283898925781;8.731176362305344;1.8082144472977102;-0.4332680063816794;-55.8;0.3;-32.85;0.0;0.0;0.0
8.2117;2025-05-11 08:32:09;1001.0896856898943;35.36361862543062;121.47728051670988;2.749981909179686;5.128379956054687;-3.957615344238281;8.731176362305344;1.2710260703816796;-0.7527565301526717;-56.4;5.1;-38.85;0.0;0.0;0.0
8.2497;2025-05-11 08:32:09;1001.0896856898943;35.36361862543062;121.47728051670988;2.9941904785156233;9.126696728515624;-11.717222924804688;8.731176362305344;2.0096600886412217;-0.42953753154198476;-57.0;0.3;-46.8;0.0;0.0;0.0
8.2848;2025-05-11 08:32:09;1001.0937346234314;35.38935143177903;121.44325535230547;0.710122094726561;3.1962592163085937;-11.67652149658203;8.731176362305344;3.1253385281984736;-2.5316601037099242;-56.55;-4.95;-41.25;0.0;0.0;0.0
8.3202;2025-05-11 08:32:09;1001.0937346234314;35.38935143177903;121.44325535230547;-2.407128466796876;1.6519991455078125;-4.359841223144531;8.731176362305344;1.7485268498625957;-4.413151735358779;-55.5;-0.3;-41.55;0.0;0.0;0.0
8.3605;2025-05-11 08:32:09;1001.1215022428728;35.38935143177903;121.20991349786577;-3.398327954101563;5.540182641601562;-3.6487633300781246;8.731176362305344;-0.0668820846259542;-4.381975624198474;-55.8;6.1499999999999995;-43.5;0.0;0.0;0.0
8.3981;2025-05-11 08:32:09;1001.1215022428728;35.38935143177903;121.20991349786577;-3.518038037109376;8.75320126953125;-5.6383449096679685;8.731176362305344;-1.0629188668244276;-2.5263308539389318;-50.25;9.6;-54.0;0.0;0.0;0.0
8.439;2025-05-11 08:32:09;1001.1215022428728;35.38935143177903;121.20991349786577;-3.6329597167968757;6.380547424316406;-8.319850769042969;7.97309058238168;-0.15028484354198474;-0.9009096737862596;-50.25;1.7999999999999998;-61.65;0.0;0.0;0.0
8.4823;2025-05-11 08:32:09;1001.1207980697448;35.384876161109744;121.21583086739498;-4.70316785888672;4.182670300292968;-8.492233288574218;4.927424338259542;1.5081776851908397;-0.36478714682442753;-49.8;-2.25;-62.099999999999994;0.0;0.0;0.0
8.5144;2025-05-11 08:32:09;1001.1207980697448;35.384876161109744;121.21583086739498;-5.557897851562501;1.6927005737304686;-7.673416320800781;2.3608576485496187;2.92522519929771;-0.40182543273282445;-54.3;-8.4;-55.8;0.0;0.0;0.0
8.5598;2025-05-11 08:32:09;1001.2330519731044;35.384876161109744;120.27257154893896;-6.417416247558594;1.7908628417968748;-5.238513232421875;1.1082174898778627;3.5964442079541987;-0.34746708506870233;-55.199999999999996;-8.25;-52.05;0.0;0.0;0.0
8.5972;2025-05-11 08:32:09;1001.2330519731044;35.384876161109744;120.27257154893896;-7.320030273437501;2.133233679199219;-3.787627026367187;0.2134364533282443;4.170137945801527;0.02691271134351145;-58.05;-10.799999999999999;-44.55;0.0;0.0;0.0
8.6431;2025-05-11 08:32:09;1001.2330519731044;35.37396768885334;120.27257154893896;-7.609728674316407;2.185906115722656;-2.636016027832031;-0.38983462074809166;4.41261881038168;0.39676264545038176;-58.5;-10.049999999999999;-36.449999999999996;0.0;0.0;0.0
8.6847;2025-05-11 08:32:09;1001.2313354449378;35.37396768885334;120.28699473396497;-6.606558178710938;0.47884033203125;-1.8459294799804686;-0.9869770575877863;4.52426659308397;0.7996539281374047;-55.5;-8.85;-28.799999999999997;0.0;0.0;0.0
8.7588;2025-05-11 08:32:09;1001.2313354449378;35.37396768885334;120.28699473396497;-5.404668945312501;-0.8954314208984374;-0.32082302246093747;-0.852413500870229;4.388637186412215;0.7961899157862596;-53.699999999999996;-14.399999999999999;-21.3;0.0;0.0;0.0
8.8014;2025-05-11 08:32:09;1001.3269213613735;35.37396768885334;119.48386137478266;-4.535573742675782;-3.8091748413085935;0.8475473876953125;0.05142726029007634;4.022784189633588;0.4284716815877863;-47.25;-13.049999999999999;-10.95;0.0;0.0;0.0
8.8473;2025-05-11 08:32:09;1001.3269213613735;35.37396768885334;119.48386137478266;-3.269041064453126;-2.882618798828125;4.57771357421875;1.6549985163816796;3.3326463442900764;-0.1758652424427481;-46.35;-13.2;-7.8;0.0;0.0;0.0
8.8857;2025-05-11 08:32:09;1001.3269213613735;35.36781419168307;119.48386137478266;-1.3488913330078134;0.24660277099609373;6.335057592773437;3.4456264394351153;1.9888760145343514;-0.7738070667480916;-43.35;-9.75;-3.75;0.0;0.0;0.0
8.9265;2025-05-11 08:32:09;1001.3259530124343;35.36781419168307;119.49199733888025;-0.9897610839843765;2.9281086303710935;6.191405493164062;3.8783615208396953;1.1058193274809163;-0.5984747492824428;-39.3;-4.05;-0.44999999999999996;0.0;0.0;0.0
8.9745;2025-05-11 08:32:10;1001.3259530124343;35.36781419168307;119.49199733888025;0.27916579589843593;8.075642199707032;5.868188269042968;3.738735176839695;0.037571210885496184;0.48842574151145046;-38.85;2.1;-2.25;0.0;0.0;0.0
9.0051;2025-05-11 08:32:10;1001.4921193794523;35.36781419168307;118.09597855670494;1.4666898193359366;7.455543969726562;4.96078583984375;3.450955689206107;-0.9121010983053437;2.274523802259542;-40.35;6.75;-3.75;0.0;0.0;0.0
9.0494;2025-05-11 08:32:10;1001.4921193794523;35.36781419168307;118.09597855670494;1.9215881347656243;3.0789433349609374;2.6503812377929687;3.509044511709924;-1.0746432163206108;3.154915864427481;-43.5;6.45;-5.85;0.0;0.0;0.0
9.0861;2025-05-11 08:32:10;1001.4921193794523;35.36781419168307;118.09597855670494;3.899198706054687;-2.7054478759765623;-1.8363526733398436;3.2745575217862597;-0.35972435954198473;2.9249587368091605;-46.35;5.1;-11.4;0.0;0.0;0.0
9.1235;2025-05-11 08:32:10;1001.4910629020685;35.361101285679126;118.10485378129506;3.3676859374999992;-6.069301208496094;-2.29843359375;2.8018530670992368;0.5680980255877862;1.7290750881984733;-47.1;7.5;-11.85;0.0;0.0;0.0
9.1656;2025-05-11 08:32:10;1001.4910629020685;35.361101285679126;118.10485378129506;3.5161264404296855;-7.472303381347656;-2.4253262817382812;2.465843869038168;1.2076079981068704;0.441261881038168;-47.4;8.25;-13.95;0.0;0.0;0.0
9.2023;2025-05-11 08:32:10;1001.6028849582717;35.361101285679126;117.16550435209929;2.472254516601561;-6.342240197753906;-0.1484405029296875;2.789329330137405;1.4567504249007635;-0.8324288142290077;-45.6;11.7;-11.85;0.0;0.0;0.0
9.2435;2025-05-11 08:32:10;1001.6028849582717;35.361101285679126;117.16550435209929;1.6247071289062482;-2.6144682128906247;2.319981408691406;3.522367636137405;1.2998040191450382;-1.7855651357709927;-43.199999999999996;16.95;-13.799999999999999;0.0;0.0;0.0
9.2931;2025-05-11 08:32:10;1001.6028849582717;35.361101285679126;117.16550435209929;0.9351770507812489;0.45010991210937495;3.7900212280273435;4.562104266458015;0.488692204;-2.1149127716183207;-40.199999999999996;20.849999999999998;-16.8;0.0;0.0;0.0
9.3339;2025-05-11 08:32:10;1001.6020925514131;35.35606660617617;117.17216058387842;0.49703814697265436;3.7205893798828122;3.6463691284179687;4.820839342839695;-0.2454119519541985;-1.6190260804274812;-37.199999999999996;30.15;-23.4;0.0;0.0;0.0
9.3823;2025-05-11 08:32:10;1001.6020925514131;35.35606660617617;117.17216058387842;-0.07038764648437557;5.76523759765625;1.20667763671875;4.429405947160306;-0.583019924946565;-0.687739682946565;-34.8;32.25;-31.2;0.0;0.0;0.0
9.4172;2025-05-11 08:32:10;1001.7452253206237;35.35606660617617;115.96991193232;-0.4103642822265634;5.57370146484375;-1.908178723144531;3.4264411402595423;-0.31415927400000004;0.26779480099236647;-35.4;34.35;-35.4;0.0;0.0;0.0
9.4517;2025-05-11 08:32:10;1001.7452253206237;35.35606660617617;115.96991193232;-1.1453841918945322;5.559336254882812;-2.2098481323242187;2.041902049755725;0.36958347161832067;1.1343308137557253;-37.35;32.55;-40.35;0.0;0.0;0.0
9.4923;2025-05-11 08:32:10;1001.7452253206237;35.35606660617617;115.96991193232;-1.9618069580078137;5.734112976074218;-1.177947216796875;0.8713323375572519;1.0610536294045803;1.9459755538778627;-39.3;29.099999999999998;-39.3;0.0;0.0;0.0
9.5245;2025-05-11 08:32:10;1001.7439045383678;35.34767547367126;115.98100525277087;-2.893151403808595;4.302380383300781;0.258573779296875;0.30003676210687025;1.4471577753129774;2.64623897378626;-43.199999999999996;27.75;-41.25;0.0;0.0;0.0
9.5693;2025-05-11 08:32:10;1001.7439045383678;35.34767547367126;115.98100525277087;-3.3959337524414073;2.4779987182617185;2.6599580444335937;0.4476569807633588;1.4916570109007634;3.0930965670839696;-46.199999999999996;24.3;-38.699999999999996;0.0;0.0;0.0
9.6108;2025-05-11 08:32:10;1001.7439045383678;35.34767547367126;115.98100525277087;-3.386356945800782;-0.34715924072265625;4.350264416503906;1.5899816691755726;1.2441133590381679;2.9681256599541985;-50.85;17.099999999999998;-38.1;0.0;0.0;0.0
9.657;2025-05-11 08:32:10;1001.802976459974;35.34767547367126;115.48486861946422;-3.024832495117188;-1.8052280517578123;5.125985754394531;3.2993385332213747;0.9528698590534352;2.4306708205496186;-50.25;13.799999999999999;-37.949999999999996;0.0;0.0;0.0
9.7036;2025-05-11 08:32:10;1001.802976459974;35.34767547367126;115.48486861946422;-2.7590761108398443;-2.7916391357421872;6.402095239257812;5.214670900916031;0.6515007845038169;1.774640173740458;-54.0;10.049999999999999;-41.25;0.0;0.0;0.0
9.7451;2025-05-11 08:32:10;1001.8023160473515;35.34347990741881;115.49041519983393;-2.5316269531250013;-0.21308394775390624;5.355829113769531;7.14172761810687;0.15294946842748094;1.1388606760610687;-54.9;4.05;-43.65;0.0;0.0;0.0
9.7912;2025-05-11 08:32:10;1001.8023160473515;35.34347990741881;115.49041519983393;-2.088699645996095;2.2553379638671873;4.034229797363281;8.144692425007634;-0.22649311526717558;1.0136233064427482;-55.199999999999996;2.4;-46.949999999999996;0.0;0.0;0.0
9.8382;2025-05-11 08:32:10;1001.8023160473515;35.34347990741881;115.49041519983393;-1.9833547729492196;2.4253262817382812;3.277662072753906;8.540389220503817;-0.40768760748091604;1.2046769107328246;-54.0;-3.0;-47.85;0.0;0.0;0.0
9.8754;2025-05-11 08:32:10;1001.9481992412974;35.34347990741881;114.26526391060489;-1.3919869628906252;4.182670300292968;0.8283937744140625;8.366655677969467;-0.29817152468702296;1.548679983450382;-54.9;-12.45;-50.55;0.0;0.0;0.0
9.9188;2025-05-11 08:32:10;1001.9481992412974;35.34347990741881;114.26526391060489;-1.092711755371095;3.7301661865234372;-0.6057330200195312;7.8609098747022905;0.2888453375877863;1.8007534976183208;-55.65;-18.75;-48.0;0.0;0.0;0.0
9.9588;2025-05-11 08:32:11;1001.9473186203536;35.337885819082175;114.27265907820721;-0.9514538574218765;1.407790576171875;-2.1116858642578125;7.545951213236642;0.8585421381068703;1.5761256197709925;-54.449999999999996;-24.45;-41.4;0.0;0.0;0.0
9.999;2025-05-11 08:32:11;1001.9473186203536;35.337885819082175;114.27265907820721;-0.6306308349609377;-0.6871358764648438;-1.5514426757812498;7.600842485877863;1.219065885114504;0.9496723091908398;-52.35;-26.4;-36.6;0.0;0.0;0.0
10.0455;2025-05-11 08:32:11;1001.9473186203536;35.337885819082175;114.27265907820721;-0.08235865478515692;-2.887407202148437;-0.833182177734375;8.101525501862596;1.2435804340610688;0.1409586564427481;-54.0;-24.75;-27.3;0.0;0.0;0.0
10.0877;2025-05-11 08:32:11;1002.091202196385;35.337885819082175;113.06444152460752;0.20494554443359192;-2.935291235351562;0.5602431884765625;8.731176362305344;0.8862542369160307;-0.700263419908397;-53.1;-20.25;-22.349999999999998;0.0;0.0;0.0
10.1271;2025-05-11 08:32:11;1002.091202196385;35.337885819082175;113.06444152460752;0.30550201416015454;-1.8650830932617186;0.5482721801757812;8.731176362305344;0.1889219043816794;-1.2987381691908397;-52.35;-9.75;-18.75;0.0;0.0;0.0
10.1733;2025-05-11 08:32:11;1002.091202196385;35.337885819082175;113.06444152460752;0.5090091552734357;-1.189918225097656;0.08140285644531249;8.731176362305344;-0.6288514729770993;-1.3999939148396947;-51.15;-1.3499999999999999;-19.8;0.0;0.0;0.0
10.2157;2025-05-11 08:32:11;1002.0942405795038;35.357185423843504;113.03892916239037;0.990243688964842;-1.1923124267578125;-0.8188169677734375;8.731176362305344;-1.198015348519084;-1.0360061554809161;-51.3;7.6499999999999995;-24.45;0.0;0.0;0.0
10.253;2025-05-11 08:32:11;1002.0942405795038;35.357185423843504;113.03892916239037;1.495420239257811;0.17956512451171874;-2.5163059448242184;8.731176362305344;-1.1849586865801527;-0.4460582058320611;-51.9;13.65;-34.5;0.0;0.0;0.0
10.3016;2025-05-11 08:32:11;1002.1976835308741;35.357185423843504;112.17038809374561;1.9575011596679683;-0.63206923828125;-3.7229835815429686;8.702931338519084;-0.5230658650229008;0.028511486274809164;-51.9;16.349999999999998;-42.9;0.0;0.0;0.0
10.3349;2025-05-11 08:32:11;1002.1976835308741;35.357185423843504;112.17038809374561;2.058057629394529;-0.9337386474609375;-3.816357446289062;7.277090562290077;0.17320061755725194;-0.014921899358778627;-52.8;10.35;-51.15;0.0;0.0;0.0
10.3743;2025-05-11 08:32:11;1002.1976835308741;35.36417803426427;112.17038809374561;2.1418546874999986;-0.7948749511718749;-1.5610194824218748;5.636747482778627;0.902774911206107;-0.48176417929771;-51.9;6.75;-54.15;0.0;0.0;0.0
10.4158;2025-05-11 08:32:11;1002.1987844570676;35.36417803426427;112.16114474543639;2.228045947265624;1.1851298217773436;0.39983167724609375;5.2549067366870235;0.9925727698473283;-0.665356833908397;-53.55;3.75;-54.0;0.0;0.0;0.0
10.4517;2025-05-11 08:32:11;1002.1987844570676;35.36417803426427;112.16114474543639;2.3333908203124984;3.1603461914062496;1.6112977172851561;5.313528484167939;0.7559540800152672;-0.3261500859847329;-52.65;-0.15;-55.35;0.0;0.0;0.0
10.4905;2025-05-11 08:32:11;1002.3382796325086;35.36417803426427;110.99001331536932;1.610341918945311;4.484339709472656;1.5203180541992187;5.294343184992368;0.673084246076336;0.16014395561832062;-55.199999999999996;-3.15;-54.9;0.0;0.0;0.0
10.5304;2025-05-11 08:32:11;1002.3382796325086;35.36417803426427;110.99001331536932;1.1147421752929674;4.3239281982421875;1.2042834350585936;5.12380719232061;0.7263767437862596;0.7508912927328245;-54.9;-7.5;-53.55;0.0;0.0;0.0
10.5716;2025-05-11 08:32:11;1002.3407018562934;35.37956177718996;110.96967870676926;0.37972226562499856;3.4835634155273434;0.6584054565429687;4.801387581175573;1.1028882401068703;1.3925329651603056;-55.8;-15.75;-49.65;0.0;0.0;0.0
10.6173;2025-05-11 08:32:11;1002.3407018562934;35.37956177718996;110.96967870676926;-0.13981949462890775;3.191470812988281;1.2761094848632812;4.702263535435114;1.3333782927022901;1.5564073956183209;-53.4;-19.8;-46.5;0.0;0.0;0.0
10.6602;2025-05-11 08:32:11;1002.3407018562934;35.37956177718996;110.96967870676926;-0.3864222656250007;2.3247698120117186;1.659181750488281;4.848551441648855;1.608634043374046;1.4793997364274811;-53.55;-24.3;-39.449999999999996;0.0;0.0;0.0
10.7019;2025-05-11 08:32:11;1002.4496712804008;35.37956177718996;110.05491975108144;-0.6809090698242191;2.2601263671875;2.1978771240234374;5.232257425160306;1.6845758526106873;1.3360429175877864;-52.35;-26.849999999999998;-34.8;0.0;0.0;0.0
10.7387;2025-05-11 08:32:11;1002.4496712804008;35.37956177718996;110.05491975108144;-0.6545728515625004;2.8107927490234372;2.6096798095703124;5.781170151572519;1.6520674290076336;1.1924196362595423;-53.1;-27.9;-28.2;0.0;0.0;0.0
10.7816;2025-05-11 08:32:11;1002.4509925727002;35.38795290969489;110.04382847354034;-0.5372569702148446;2.971204260253906;2.9185318237304685;6.27652391778626;1.5502787583816795;1.0711792039694659;-51.75;-24.75;-19.65;0.0;0.0;0.0
10.8229;2025-05-11 08:32:11;1002.4509925727002;35.38795290969489;110.04382847354034;-0.3672686523437516;3.1794998046874996;2.5665841796874997;7.0745790709923675;1.3141929935267176;0.8620061504580153;-49.65;-20.55;-13.65;0.0;0.0;0.0
10.8644;2025-05-11 08:32:11;1002.4509925727002;35.38795290969489;110.04382847354034;-0.26431798095703307;3.478775012207031;2.1021090576171875;7.44949179238168;1.1748331120152673;0.7556876175267176;-46.949999999999996;-14.549999999999999;-12.0;0.0;0.0;0.0
10.9088;2025-05-11 08:32:11;1002.5793657127714;35.38795290969489;108.96628677173132;-0.3840280639648448;3.8187516479492185;0.36631285400390623;7.423644930992367;1.1487197881374047;0.6805451957557253;-44.85;-6.75;-8.549999999999999;0.0;0.0;0.0
10.957;2025-05-11 08:32:11;1002.5793657127714;35.38795290969489;108.96628677173132;-0.5157091552734379;3.5865140869140624;-0.29927520751953124;7.03807371006107;1.3011363315877864;0.5886156372061069;-44.85;-1.65;-6.75;0.0;0.0;0.0
11.0041;2025-05-11 08:32:12;1002.5793657127714;35.38795290969489;108.96628677173132;-0.6210540283203141;3.39018955078125;-1.608903515625;6.575228367450382;1.5617366453893131;0.42633998167938936;-43.65;9.45;-6.75;0.0;0.0;0.0
11.0466;2025-05-11 08:32:12;1002.5818322995156;35.40361635703741;108.94558376760591;-0.7742829345703139;2.6910826660156246;-2.418143676757812;5.977819468122138;1.847384433114504;0.18092802972519087;-41.1;16.8;-9.6;0.0;0.0;0.0
11.0834;2025-05-11 08:32:12;1002.5818322995156;35.40361635703741;108.94558376760591;-0.9131466308593765;2.152387292480469;-1.8938135131835936;5.449157890839695;2.033641712610687;-0.13483001920610688;-39.0;23.849999999999998;-12.299999999999999;0.0;0.0;0.0
11.1205;2025-05-11 08:32:12;1002.707022620574;35.40361635703741;107.89486777575091;-1.0352509155273442;1.66636435546875;-1.8076222534179687;5.0337428711908405;2.1135804591755725;-0.5140061404122138;-37.949999999999996;26.55;-18.15;0.0;0.0;0.0
11.1569;2025-05-11 08:32:12;1002.707022620574;35.40361635703741;107.89486777575091;-1.2363638549804694;1.4101847778320311;-1.0726023437499999;4.78300166946565;2.0498959244122137;-0.8822572995877863;-33.6;30.299999999999997;-22.349999999999998;0.0;0.0;0.0
11.1961;2025-05-11 08:32:12;1002.707022620574;35.40361635703741;107.89486777575091;-1.2603058715820321;1.4891934326171874;-0.86191259765625;4.7014641479694665;1.7344043379694658;-1.2076079981068704;-32.1;34.5;-27.9;0.0;0.0;0.0
11.2342;2025-05-11 08:32:12;1002.7093572297655;35.41844069112943;107.8752745285692;-1.1405957885742204;1.879448303222656;-0.9576806640625;4.68467701119084;1.2760888576641223;-1.266496208076336;-29.4;37.8;-35.4;0.0;0.0;0.0
11.2721;2025-05-11 08:32:12;1002.7093572297655;35.41844069112943;107.8752745285692;-0.8341379760742189;2.2840683837890623;-1.4772224243164063;4.572229841022901;0.9456753718625955;-1.1556478128396948;-25.8;36.9;-42.9;0.0;0.0;0.0
11.3116;2025-05-11 08:32:12;1002.8345345977926;35.41844069112943;106.8247754299438;-0.5540163818359378;2.4013842651367185;-2.1906945190429687;3.9812160414198474;0.7727412167938932;-0.9043736861374047;-25.95;36.3;-49.65;0.0;0.0;0.0
11.345;2025-05-11 08:32:12;1002.8345345977926;35.41844069112943;106.8247754299438;-0.020109411621094253;1.4341267944335936;-2.8610709838867185;3.2225973365190845;0.8108453526564887;-0.7698101294198474;-25.95;34.8;-56.25;0.0;0.0;0.0
11.3947;2025-05-11 08:32:12;1002.8345345977926;35.41844069112943;106.8247754299438;0.4180294921874985;0.8355763793945312;-3.0909143432617188;1.9672925529618324;1.059188391984733;-0.8596079880610689;-24.3;32.25;-61.949999999999996;0.0;0.0;0.0
11.4405;2025-05-11 08:32:12;1002.8358121135666;35.42655211921752;106.81405495645501;0.688574279785156;0.08858546142578125;-2.849099975585937;1.4319694134656489;1.1886891614198476;-1.0194854811908398;-25.05;31.799999999999997;-63.0;0.0;0.0;0.0
11.4778;2025-05-11 08:32:12;1002.8358121135666;35.42655211921752;106.81405495645501;0.9615132690429675;-0.20350714111328125;-2.5953145996093747;0.8742634249312978;1.3288484303969468;-1.2579694084427482;-22.5;30.299999999999997;-63.75;0.0;0.0;0.0
11.5229;2025-05-11 08:32:12;1002.9752348547081;35.42655211921752;105.64413366258907;0.6598438598632796;0.11252747802734374;-1.5921441040039062;0.36185605945038174;1.3725482785190841;-1.628885192503817;-21.75;29.549999999999997;-62.25;0.0;0.0;0.0
11.5688;2025-05-11 08:32:12;1002.9752348547081;35.42655211921752;105.64413366258907;0.31507882080078;0.8595183959960937;-0.8643067993164062;0.2843154752824428;1.3051332689160307;-1.6869740150076338;-21.15;30.9;-64.35;0.0;0.0;0.0
11.6137;2025-05-11 08:32:12;1002.9795523086101;35.45396315206693;105.60790723253717;-0.01292680664062651;1.6017209106445311;-0.9552864624023437;0.21583461572519086;1.1830934491603056;-1.6184931554503819;-19.8;32.55;-64.8;0.0;0.0;0.0
11.6487;2025-05-11 08:32:12;1002.9795523086101;35.45396315206693;105.60790723253717;-0.2020687377929704;2.2553379638671873;-0.8283937744140625;0.010658499541984735;1.038137855389313;-1.3581593041374047;-18.599999999999998;31.95;-63.15;0.0;0.0;0.0
11.6944;2025-05-11 08:32:12;1002.9795523086101;35.45396315206693;105.60790723253717;-0.05362823486328239;3.318363500976562;-1.2425906616210938;-0.45378561800000006;0.9915069198931299;-0.9768514830229009;-17.7;31.799999999999997;-64.05;0.0;0.0;0.0
11.7326;2025-05-11 08:32:12;1003.0908414373116;35.45396315206693;104.67415789625926;0.4419715087890612;3.1747114013671873;-1.915361328125;-1.0621194793587787;1.0834364784427482;-0.6261868480916032;-18.15;32.85;-62.4;0.0;0.0;0.0
11.7716;2025-05-11 08:32:12;1003.0908414373116;35.45396315206693;104.67415789625926;1.0764349487304674;3.5577836669921874;-2.2577321655273437;-1.874563606946565;1.2782205575725192;-0.2619326262442748;-17.099999999999998;32.85;-59.55;0.0;0.0;0.0
11.8224;2025-05-11 08:32:12;1003.0957759728898;35.48529004675197;104.63275759746999;2.005385192871092;3.8187516479492185;-2.8012159423828122;-2.829565165908397;1.5489464459389315;0.12656968206106872;-18.75;35.25;-56.85;0.0;0.0;0.0
11.8703;2025-05-11 08:32:12;1003.0957759728898;35.48529004675197;104.63275759746999;2.546474768066405;3.7421371948242186;-2.511517541503906;-3.7829679499389317;1.8268668214961834;0.5611700008854963;-19.65;38.25;-49.65;0.0;0.0;0.0
11.9107;2025-05-11 08:32:12;1003.0957759728898;35.48529004675197;104.63275759746999;2.697309472656249;3.7205893798828122;-1.3718775512695311;-4.562903653923665;1.9718224152671757;1.026946430870229;-22.349999999999998;39.0;-40.949999999999996;0.0;0.0;0.0
11.9464;2025-05-11 08:32:13;1003.2791234941411;35.48529004675197;103.09460567147238;2.7044920776367167;2.73896669921875;-0.612915625;-4.829366142473283;1.7509250122595423;1.5830536444732828;-25.05;36.15;-31.5;0.0;0.0;0.0
12.0045;2025-05-11 08:32:13;1003.2791234941411;35.48529004675197;103.09460567147238;2.07721124267578;1.4149731811523436;0.718260498046875;-4.5549097792671756;1.4791332739389316;1.671519190671756;-25.2;35.55;-21.9;0.0;0.0;0.0
12.0445;2025-05-11 08:32:13;1003.2791234941411;35.48529004675197;103.09460567147238;1.9790489746093733;0.737414111328125;1.3000515014648437;-3.9471088428854966;1.031209830687023;1.5913139816183208;-26.55;30.599999999999998;-15.45;0.0;0.0;0.0
12.0907;2025-05-11 08:32:13;1003.2857329147528;35.527245709276585;103.03916170544512;2.0317214111328106;-0.5267243652343749;2.4061726684570313;-3.2050108122748093;0.6171271234809161;1.3165911559236643;-29.25;24.45;-6.75;0.0;0.0;0.0
12.129;2025-05-11 08:32:13;1003.2857329147528;35.527245709276585;103.03916170544512;2.0724228393554682;-0.3711012573242187;2.281674182128906;-2.287846926687023;0.29257581242748093;0.8931822616183207;-30.45;20.4;-5.85;0.0;0.0;0.0
12.171;2025-05-11 08:32:13;1003.4306491529859;35.527245709276585;101.82358772052201;2.03890401611328;0.51714755859375;2.4013842651367185;-1.8900184312824428;0.18679020447328246;0.7716753668396947;-30.9;18.15;-0.6;0.0;0.0;0.0
12.2165;2025-05-11 08:32:13;1003.4306491529859;35.527245709276585;101.82358772052201;1.7444172119140617;2.001552587890625;2.741360900878906;-1.4727381742137406;-0.05968759743511451;0.9424778220000001;-31.349999999999998;13.2;-0.8999999999999999;0.0;0.0;0.0
12.2552;2025-05-11 08:32:13;1003.4306491529859;35.527245709276585;101.82358772052201;1.4499304077148434;3.2130186279296873;3.438073583984375;-1.2326554720305345;-0.32321899861068704;1.352297129389313;-31.2;10.35;1.3499999999999999;0.0;0.0;0.0
12.301;2025-05-11 08:32:13;1003.4362896422207;35.5630478746309;101.77627752563718;1.0740407470703115;3.3686417358398435;3.7397429931640622;-0.9307534725038169;-0.576624825221374;1.6843093901221378;-33.449999999999996;6.8999999999999995;0.6;0.0;0.0;0.0
12.3344;2025-05-11 08:32:13;1003.4362896422207;35.5630478746309;101.77627752563718;0.6023830200195306;2.2840683837890623;3.9240965209960934;-0.25500460154198473;-0.9688576083664123;2.105586584519084;-35.1;5.85;-0.44999999999999996;0.0;0.0;0.0
12.3703;2025-05-11 08:32:13;1003.5855433719113;35.5630478746309;100.52447444691974;-0.06320504150390782;0.7709329345703124;3.0334535034179684;0.459381330259542;-1.2254609848396947;2.28997862659542;-37.5;0.75;-1.05;0.0;0.0;0.0
12.4055;2025-05-11 08:32:13;1003.5855433719113;35.5630478746309;100.52447444691974;-0.12306008300781279;-0.11731588134765625;2.5617957763671875;1.0162879313282442;-1.2299908471450383;2.184725943618321;-40.8;-0.15;-4.2;0.0;0.0;0.0
12.4526;2025-05-11 08:32:13;1003.5855433719113;35.5630478746309;100.52447444691974;0.03016882324218706;-1.2832920898437499;2.1787235107421874;1.7493262373282443;-1.1207412268396948;1.8985452309160307;-42.9;0.44999999999999996;-5.55;0.0;0.0;0.0
12.4908;2025-05-11 08:32:13;1003.5924623533975;35.60696146807332;100.46644804673623;0.6454786499023424;-1.3072341064453123;2.7557261108398436;2.435200682854962;-1.0565237670992367;1.597442618854962;-45.449999999999996;37.35;-7.199999999999999;0.0;0.0;0.0
12.527;2025-05-11 08:32:13;1003.5924623533975;35.60696146807332;100.46644804673623;1.1123479736328115;-1.2785036865234374;3.3327287109375;3.579124146198474;-1.069580429038168;1.2638315831908398;-46.199999999999996;1.5;-11.7;0.0;0.0;0.0
12.5734;2025-05-11 08:32:13;1003.7163648844304;35.60696146807332;99.42738782268749;1.7108983886718736;-0.7015010864257812;3.845087866210937;4.323353876717557;-1.1420582259236642;1.141525300946565;-47.699999999999996;4.2;-13.049999999999999;0.0;0.0;0.0
12.6263;2025-05-11 08:32:13;1003.7163648844304;35.60696146807332;99.42738782268749;2.455495104980468;-0.1292868896484375;3.9456443359374997;5.3193906589160305;-1.27768763259542;1.1258040141221377;-50.25;8.4;-17.849999999999998;0.0;0.0;0.0
12.6641;2025-05-11 08:32:13;1003.7163648844304;35.60696146807332;99.42738782268749;3.4754250122070296;2.003946789550781;2.808398547363281;6.184860821725191;-1.2806187199694659;1.535889784;-52.35;9.0;-22.8;0.0;0.0;0.0
12.7028;2025-05-11 08:32:13;1003.7217417848317;35.64108540692668;99.38229889713297;3.8106132446289056;2.844311572265625;1.2737152832031249;6.321023153374047;-0.8324288142290077;2.0877335977862597;-52.65;8.7;-31.5;0.0;0.0;0.0
12.7584;2025-05-11 08:32:13;1003.7217417848317;35.64108540692668;99.38229889713297;3.556827868652343;2.442085693359375;-0.229843359375;5.996205379832062;-0.1060520704427481;2.338741262;-54.75;6.45;-34.35;0.0;0.0;0.0
12.7935;2025-05-11 08:32:13;1003.8804612231564;35.64108540692668;98.05141776265859;2.936729638671874;0.737414111328125;-0.9888052856445312;5.521902150213741;0.6944012451603054;2.0744104733587787;-55.05;1.05;-35.699999999999996;0.0;0.0;0.0
12.8367;2025-05-11 08:32:13;1003.8804612231564;35.64108540692668;98.05141776265859;2.158614099121092;0.26815058593749996;-0.5698199951171875;5.148055278778627;1.4298377135572522;1.3773446033129773;-56.699999999999996;-1.65;-34.8;0.0;0.0;0.0
12.8724;2025-05-11 08:32:13;1003.8804612231564;35.64108540692668;98.05141776265859;1.6797737670898432;0.4381389038085937;-0.3806780639648437;4.947675487389313;1.7884962231450383;0.7271761312519085;-55.5;-3.75;-34.35;0.0;0.0;0.0
12.9097;2025-05-11 08:32:13;1003.8858385937392;35.67520934578002;98.00633086271435;1.3589507446289044;1.4437036010742186;0.5985504150390625;4.8765300029465655;1.9134671302748092;-0.04636447300763359;-55.05;-2.25;-30.299999999999997;0.0;0.0;0.0
12.9526;2025-05-11 08:32:14;1003.8858385937392;35.67520934578002;98.00633086271435;1.2464232666015622;3.768473413085937;0.8978256225585937;4.818441180442749;1.790894385541985;-0.3256171610076336;-55.05;1.05;-29.25;0.0;0.0;0.0
12.9903;2025-05-11 08:32:14;1004.0287080527771;35.67520934578002;96.80850455979632;1.4499304077148434;6.019022973632812;0.3136404174804687;4.448857708824428;1.6584625287328245;-0.16787136778625958;-54.3;3.4499999999999997;-27.0;0.0;0.0;0.0
13.0274;2025-05-11 08:32:14;1004.0287080527771;35.67520934578002;96.80850455979632;1.2727594848632808;6.909665991210937;-0.2753331909179687;3.5268974984427484;1.6757825904885497;0.40981930738931305;-53.4;4.05;-25.349999999999998;0.0;0.0;0.0
13.068;2025-05-11 08:32:14;1004.0287080527771;35.67520934578002;96.80850455979632;0.8298321777343745;6.45476767578125;-0.7829039428710937;2.4876937930992367;1.8412557958778626;1.0272128933587787;-53.25;4.2;-23.7;0.0;0.0;0.0
13.1032;2025-05-11 08:32:14;1004.0324989566328;35.69926392562746;96.77672326910155;0.30550201416015454;5.432443566894531;0.062249243164062495;2.001399751496183;1.9553017409770994;1.3168576184122138;-54.15;2.4;-22.8;0.0;0.0;0.0
13.1509;2025-05-11 08:32:14;1004.0324989566328;35.69926392562746;96.77672326910155;-0.22361655273437542;3.9264907226562498;1.1875240234375;1.7312067881068705;1.9662267030076337;1.5055130603053435;-51.75;2.6999999999999997;-16.8;0.0;0.0;0.0
13.2034;2025-05-11 08:32:14;1004.0324989566328;35.69926392562746;96.77672326910155;-0.4079700805664075;2.7365724975585937;1.180341418457031;1.8359265461068703;1.9001440058473282;1.4897917734809163;-51.75;1.7999999999999998;-17.55;0.0;0.0;0.0
13.2362;2025-05-11 08:32:14;1004.1563583487585;35.69926392562746;95.7383933889602;-0.7096394897460954;2.0302830078125;1.8100164550781248;2.3384747995114505;1.69656666459542;1.2680949830076336;-50.85;-0.15;-14.7;0.0;0.0;0.0
13.2689;2025-05-11 08:32:14;1004.1563583487585;35.69926392562746;95.7383933889602;-0.7671003295898444;1.8028338500976562;1.8842367065429686;2.7802696055267178;1.5223001970839696;1.0767749162290077;-48.9;1.65;-13.2;0.0;0.0;0.0
13.318;2025-05-11 08:32:14;1004.1620010092765;35.73506609098179;95.69109267962915;-0.8245611694335953;1.70467158203125;1.946485949707031;3.36515476789313;1.2955406193282444;0.8143093650076337;-47.4;4.8;-11.4;0.0;0.0;0.0
13.3606;2025-05-11 08:32:14;1004.1620010092765;35.73506609098179;95.69109267962915;-0.7694945312500003;1.9512743530273435;1.2378022583007813;3.9766861791145045;1.063984716778626;0.5118744405038169;-45.9;7.5;-12.9;0.0;0.0;0.0
13.3986;2025-05-11 08:32:14;1004.1620010092765;35.73506609098179;95.69109267962915;-0.62344822998047;2.1308394775390624;0.411802685546875;4.368386037282443;0.8771945123053436;0.31069526164885497;-47.25;10.049999999999999;-14.549999999999999;0.0;0.0;0.0
13.4466;2025-05-11 08:32:14;1004.2878262222724;35.73506609098179;94.63639403741179;-0.475007727050782;2.4899697265625;0.16998831787109375;4.665758174503817;0.7524900676641222;0.13989280648854965;-47.1;14.85;-15.149999999999999;0.0;0.0;0.0
13.4958;2025-05-11 08:32:14;1004.2878262222724;35.73506609098179;94.63639403741179;-0.2954426025390635;2.1499930908203124;-0.5674257934570313;4.798722956290076;0.6840092081068703;0.06768147209160305;-46.5;17.7;-17.099999999999998;0.0;0.0;0.0
13.5301;2025-05-11 08:32:14;1004.2878262222724;35.73506609098179;94.63639403741179;-0.0560224365234383;2.3415292236328122;-1.5514426757812498;4.623657101312977;0.7357029308854963;-0.08660030877862597;-44.4;21.0;-23.099999999999998;0.0;0.0;0.0
13.5676;2025-05-11 08:32:14;1004.2878262222724;35.73506609098179;94.63639403741179;0.2983194091796868;1.675941162109375;-2.7365724975585937;4.207442694198474;0.8700000251145038;-0.2350199149007634;-43.35;23.7;-26.4;0.0;0.0;0.0
13.5999;2025-05-11 08:32:14;1004.2878262222724;35.73506609098179;94.63639403741179;0.3462034423828122;1.209071838378906;-3.239354846191406;3.5604717720000005;0.9845788951908397;-0.39196632065648856;-43.35;26.099999999999998;-31.5;0.0;0.0;0.0
13.6418;2025-05-11 08:32:14;1004.4346055486905;35.73506609098179;93.40618793409982;0.42760629882812395;0.9337386474609375;-3.4428619873046875;2.9294885991145043;1.1050199400152672;-0.5491791889007633;-43.65;27.15;-33.75;0.0;0.0;0.0
13.6685;2025-05-11 08:32:14;1004.4346055486905;35.73506609098179;93.40618793409982;0.42042369384765443;0.9457096557617187;-3.306392492675781;2.05256054929771;1.2153354102748093;-0.7071914446106871;-42.75;27.45;-36.9;0.0;0.0;0.0
13.7099;2025-05-11 08:32:14;1004.4346055486905;35.79604165385089;93.40618793409982;0.7220931030273423;1.9321207397460936;-3.0550013183593747;1.1599112126564886;1.3205880932519085;-0.775672304167939;-40.199999999999996;30.45;-36.449999999999996;0.0;0.0;0.0
13.751;2025-05-11 08:32:14;1004.4442171482189;35.79604165385089;93.32563501616295;0.8872930175781235;1.3862427612304686;-2.8227637573242186;0.668820846259542;1.3704165786106872;-0.7852649537557252;-40.949999999999996;29.7;-36.449999999999996;0.0;0.0;0.0
13.7887;2025-05-11 08:32:14;1004.4442171482189;35.79604165385089;93.32563501616295;1.0788291503906233;1.5921441040039062;-2.221819140625;0.11324655763358779;1.4359663507938931;-0.7852649537557252;-37.949999999999996;31.2;-37.65;0.0;0.0;0.0
13.8259;2025-05-11 08:32:14;1004.6095704214562;35.79604165385089;91.93993959930161;1.3158551147460926;1.9943699829101562;-1.8100164550781248;-0.299503837129771;1.4367657382595422;-0.7418315681221375;-36.75;32.4;-33.9;0.0;0.0;0.0
13.873;2025-05-11 08:32:14;1004.6095704214562;35.79604165385089;91.93993959930161;1.7013215820312482;1.7094599853515624;-1.3646949462890625;-0.5547749011603054;1.3930658901374047;-0.7506248302442748;-35.4;31.65;-32.85;0.0;0.0;0.0
13.9058;2025-05-11 08:32:14;1004.6095704214562;35.79604165385089;91.93993959930161;2.1777677124023427;1.66636435546875;-0.9361328491210937;-0.5816876125038168;1.2702266829160307;-0.7548882300610689;-33.3;33.75;-30.75;0.0;0.0;0.0
13.9422;2025-05-11 08:32:14;1004.6150821617659;35.831004705954726;91.89375322987632;2.6901268676757795;1.9321207397460936;-0.8044517578125;-0.5545084386717557;1.113546739648855;-0.76101686729771;-33.6;34.5;-28.95;0.0;0.0;0.0
13.9774;2025-05-11 08:32:15;1004.6150821617659;35.831004705954726;91.89375322987632;3.018132495117186;2.703053674316406;-0.21068974609375;-0.5992741367480916;0.9155651106564887;-0.6584288092061069;-30.299999999999997;34.199999999999996;-26.099999999999998;0.0;0.0;0.0
14.0186;2025-05-11 08:32:15;1004.7562872328085;35.831004705954726;90.71057629518748;3.145025183105467;3.1364041748046874;-0.7350199096679687;-0.7770046166106871;0.8348269766259543;-0.5363889894503817;-30.599999999999998;31.799999999999997;-24.3;0.0;0.0;0.0
14.0645;2025-05-11 08:32:15;1004.7562872328085;35.831004705954726;90.71057629518748;3.097141149902342;3.4835634155273434;-1.1252747802734375;-1.2542389336030535;0.8548116632671757;-0.3264165484732825;-28.95;33.6;-21.9;0.0;0.0;0.0
14.0981;2025-05-11 08:32:15;1004.7562872328085;35.831004705954726;90.71057629518748;2.6829442626953117;3.6272155151367187;-1.4508862060546874;-1.7948913228702292;0.9496723091908398;-0.13589586916030535;-26.7;33.9;-20.099999999999998;0.0;0.0;0.0
14.1479;2025-05-11 08:32:15;1004.7617553045261;35.86568805364172;90.66476126943554;2.2902951904296867;3.708618371582031;-1.1133037719726562;-2.575093489343512;1.177764199389313;0.11830934491603054;-27.15;30.45;-14.85;0.0;0.0;0.0
14.1801;2025-05-11 08:32:15;1004.7617553045261;35.86568805364172;90.66476126943554;1.6534375488281245;3.67749375;-1.2641384765625;-3.102156291694657;1.3610903915114505;0.36132313447328246;-25.8;25.2;-8.85;0.0;0.0;0.0
14.2188;2025-05-11 08:32:15;1004.9128306464154;35.86568805364172;89.39903461313128;1.0429161254882793;3.6487633300781246;-0.9744400756835937;-3.5218347111603054;1.5071118352366415;0.6371118101221375;-23.4;22.349999999999998;-2.55;0.0;0.0;0.0
14.2519;2025-05-11 08:32:15;1004.9128306464154;35.86568805364172;89.39903461313128;0.6430844482421865;3.6463691284179687;0.33518823242187495;-3.6723860171908402;1.3896018777862595;1.0125574564885498;-24.45;16.2;1.7999999999999998;0.0;0.0;0.0
14.2907;2025-05-11 08:32:15;1004.9128306464154;35.86568805364172;89.39903461313128;0.19058033447265466;3.327940307617187;1.2832920898437499;-3.4906586;1.0733109038778628;1.2790199450381678;-20.55;10.95;5.25;0.0;0.0;0.0
14.3265;2025-05-11 08:32:15;1004.9172848497046;35.893938199741626;89.36171912207865;-0.03447462158203152;2.8371289672851563;1.7860744384765623;-3.343571306320611;0.7157182442442749;1.4735375616793893;-21.3;4.05;6.75;0.0;0.0;0.0
14.3641;2025-05-11 08:32:15;1004.9172848497046;35.893938199741626;89.36171912207865;-0.41994108886718884;2.1356278808593747;2.760514514160156;-3.223396723984733;0.3914333956793894;1.6147626806106872;-20.4;-3.4499999999999997;7.199999999999999;0.0;0.0;0.0
14.4052;2025-05-11 08:32:15;1004.9172848497046;35.893938199741626;89.36171912207865;-0.2451643676757822;0.46208092041015625;4.283226770019531;-2.6566310108396953;-0.090064321129771;1.601706018671756;-19.65;-8.85;6.8999999999999995;0.0;0.0;0.0
14.445;2025-05-11 08:32:15;1005.0426394474467;35.893938199741626;88.31160455376717;-0.0009557983398451597;-0.5722141967773438;4.302380383300781;-1.3437703297557253;-0.6749494834961833;1.2419816591297712;-22.65;-13.5;7.949999999999999;0.0;0.0;0.0
14.4837;2025-05-11 08:32:15;1005.0426394474467;35.893938199741626;88.31160455376717;0.3988758789062494;-1.3814543579101561;3.9456443359374997;-0.05569066010687024;-0.9915069198931299;0.764480879648855;-22.349999999999998;-12.299999999999999;6.1499999999999995;0.0;0.0;0.0
14.5295;2025-05-11 08:32:15;1005.0470057501922;35.92162893700787;88.27502928163817;0.8394089843749981;-0.36152445068359373;2.013523596191406;1.1018223901526718;-1.0687810415725192;0.3280153234045802;-24.45;-13.049999999999999;5.1;0.0;0.0;0.0
14.5737;2025-05-11 08:32:15;1005.0470057501922;35.92162893700787;88.27502928163817;1.3781043579101553;0.20829554443359374;1.7669208251953124;1.5060459852824428;-0.9779173329770993;0.18865544189312977;-25.95;-10.35;4.6499999999999995;0.0;0.0;0.0
14.6229;2025-05-11 08:32:15;1005.1968607354341;35.92162893700787;87.01981480894673;1.6725911621093736;2.0829554443359375;0.488417138671875;1.31259421859542;-0.5902144121374047;0.24594487693129774;-28.2;-7.6499999999999995;5.3999999999999995;0.0;0.0;0.0
14.6583;2025-05-11 08:32:15;1005.1968607354341;35.92162893700787;87.01981480894673;1.665408557128906;2.6048914062499997;0.6440402465820312;0.9438101344427482;-0.2901776500305344;0.4340673938473283;-27.45;-3.0;5.85;0.0;0.0;0.0
14.7012;2025-05-11 08:32:15;1005.1968607354341;35.92162893700787;87.01981480894673;1.3421913330078112;2.6479870361328124;0.411802685546875;0.7772710790992367;-0.03837059835114504;0.6016722991450383;-28.5;-5.1;5.25;0.0;0.0;0.0
14.7397;2025-05-11 08:32:15;1005.2040061843053;35.96694105253445;86.95996692558842;1.0381277221679674;2.231395947265625;0.7685387329101562;0.6760153334503817;0.16733844280916033;0.6648239089312978;-27.45;-4.5;5.3999999999999995;0.0;0.0;0.0
14.7864;2025-05-11 08:32:15;1005.2040061843053;35.96694105253445;86.95996692558842;0.9064466308593744;1.8435352783203125;1.659181750488281;0.839889763908397;0.30509954938931305;0.659761121648855;-29.4;-3.0;6.45;0.0;0.0;0.0
14.8196;2025-05-11 08:32:15;1005.2040061843053;35.96694105253445;86.95996692558842;0.7436409179687491;1.5322890624999999;2.0877438476562498;1.3219204056946567;0.3599908220305344;0.6128637236641222;-27.9;-1.5;4.6499999999999995;0.0;0.0;0.0
14.8666;2025-05-11 08:32:15;1005.3443551615097;35.96694105253445;85.78452078663823;0.7867365478515609;1.4149731811523436;2.89219560546875;1.94784079129771;0.30430016192366416;0.5846186998778626;-28.799999999999997;0.8999999999999999;5.55;0.0;0.0;0.0
14.8997;2025-05-11 08:32:15;1005.3443551615097;35.96694105253445;85.78452078663823;0.8250437744140608;2.04943662109375;3.1555577880859373;2.482631005816794;0.20917305351145038;0.5939448869770992;-27.15;2.6999999999999997;5.3999999999999995;0.0;0.0;0.0
14.9395;2025-05-11 08:32:16;1005.3518099406709;36.01421109897883;85.72208948159597;0.5090091552734357;1.3479355346679687;3.536235852050781;3.2164686992824434;0.02051761161832061;0.6040704615419847;-28.65;8.85;0.6;0.0;0.0;0.0
14.9882;2025-05-11 08:32:16;1005.3518099406709;36.01421109897883;85.72208948159597;0.5114033569335934;2.1308394775390624;3.7038299682617186;4.046232888625955;-0.185724354519084;0.6368453476335879;-28.65;12.75;0.6;0.0;0.0;0.0
15.0428;2025-05-11 08:32:16;1005.3518099406709;36.01421109897883;85.72208948159597;0.44915411376953074;2.0733786376953125;2.81558115234375;4.801121118687023;-0.35785912212213744;0.6717519336335879;-29.549999999999997;19.05;-3.0;0.0;0.0;0.0
15.0842;2025-05-11 08:32:16;1005.4822609229063;36.01421109897883;84.62966640099074;0.4587309204101544;2.6096798095703124;2.1308394775390624;5.351099695053436;-0.47163860473282443;0.7548882300610689;-31.95;25.05;-7.199999999999999;0.0;0.0;0.0
15.1209;2025-05-11 08:32:16;1005.4822609229063;36.01421109897883;84.62966640099074;0.6047772216796865;3.229778039550781;1.2234370483398436;5.484064476839695;-0.44525881836641223;0.8782603622595421;-31.049999999999997;30.299999999999997;-17.25;0.0;0.0;0.0
15.159;2025-05-11 08:32:16;1005.4822609229063;36.05141178641732;84.62966640099074;0.8346205810546863;2.9640216552734375;0.6057330200195312;5.221332463129771;-0.27285758827480916;0.9379479596946565;-32.55;32.55;-24.3;0.0;0.0;0.0
15.1965;2025-05-11 08:32:16;1005.4881281233717;36.05141178641732;84.58053596680132;0.9303886474609371;2.901772412109375;-0.8020575561523438;4.89385006470229;-0.031176111160305348;0.90064321129771;-34.05;33.75;-33.0;0.0;0.0;0.0
15.2321;2025-05-11 08:32:16;1005.4881281233717;36.05141178641732;84.58053596680132;0.968695874023437;2.7341782958984373;-0.7685387329101562;4.445926621450382;0.2619326262442748;0.7357029308854963;-36.75;31.95;-44.55;0.0;0.0;0.0
15.2705;2025-05-11 08:32:16;1005.637536757848;36.05141178641732;83.32950453653322;1.2224812499999995;2.2744915771484373;-1.5490484741210937;4.053693838305344;0.512407365480916;0.502015328427481;-36.449999999999996;28.5;-48.9;0.0;0.0;0.0
15.3138;2025-05-11 08:32:16;1005.637536757848;36.05141178641732;83.32950453653322;1.4092289794921857;2.2457611572265623;-1.2114660400390624;3.7776387001679392;0.6856079830381681;0.3186891363053435;-38.55;28.799999999999997;-52.05;0.0;0.0;0.0
15.3567;2025-05-11 08:32:16;1005.641110309371;36.07406784418062;83.29958424481752;1.5265448608398433;2.308010400390625;-1.0821791503906248;3.5087780492213745;0.8334946641832063;0.07247779688549619;-39.6;26.099999999999998;-56.85;0.0;0.0;0.0
15.3983;2025-05-11 08:32:16;1005.641110309371;36.07406784418062;83.29958424481752;1.5816114990234365;2.6001030029296874;-1.3407529296874998;3.3355774316641225;0.8649372378320612;-0.024781011435114506;-39.75;22.8;-59.55;0.0;0.0;0.0
15.4355;2025-05-11 08:32:16;1005.641110309371;36.07406784418062;83.29958424481752;1.7420230102539058;2.829946362304687;-1.426944189453125;2.9516049856641224;0.8644043128549619;-0.013323124427480917;-40.05;16.349999999999998;-63.3;0.0;0.0;0.0
15.472;2025-05-11 08:32:16;1005.777459275623;36.07406784418062;82.1580389129423;2.0700286376953105;2.923320227050781;-1.4341267944335936;2.6057366755267175;0.8316294267633588;0.1191087323816794;-42.15;13.2;-65.25;0.0;0.0;0.0
15.5093;2025-05-11 08:32:16;1005.777459275623;36.07406784418062;82.1580389129423;2.117912670898436;3.0933085449218747;-1.2976572998046874;2.3019694385801532;0.7908606660152673;0.29257581242748093;-41.699999999999996;13.049999999999999;-67.2;0.0;0.0;0.0
15.5519;2025-05-11 08:32:16;1005.783548005877;36.11266705370325;82.10706556660922;2.132277880859373;2.602497204589844;-1.3168109130859373;2.0666830611908398;0.755421155038168;0.43007045651908404;-44.25;9.6;-65.7;0.0;0.0;0.0
15.5995;2025-05-11 08:32:16;1005.783548005877;36.11266705370325;82.10706556660922;2.2208633422851545;1.5490484741210937;-1.005564697265625;1.8980123059389316;0.6890719953893131;0.47723431699236646;-45.15;6.75;-66.3;0.0;0.0;0.0
15.6369;2025-05-11 08:32:16;1005.783548005877;36.11266705370325;82.10706556660922;2.340573425292968;0.6943184814453125;-1.4149731811523436;1.8476508956030535;0.6419081349160306;0.3964961829618321;-47.699999999999996;3.4499999999999997;-66.45;0.0;0.0;0.0
15.6829;2025-05-11 08:32:16;1005.9258090565777;36.11266705370325;80.91616228786455;2.5201385498046864;-0.2609679809570312;-0.9600748657226562;1.913733592763359;0.555041363648855;0.06741500960305344;-46.65;-0.44999999999999996;-66.6;0.0;0.0;0.0
15.7226;2025-05-11 08:32:16;1005.9258090565777;36.11266705370325;80.91616228786455;2.589570397949217;-0.6105214233398437;-0.9433154541015625;2.149019970152672;0.44925575569465653;-0.3168238988854962;-47.25;-1.5;-64.64999999999999;0.0;0.0;0.0
15.7599;2025-05-11 08:32:16;1005.9258090565777;36.11266705370325;80.91616228786455;2.6326660278320304;-0.5770026000976562;-0.7422025146484375;2.338741262;0.33094641077862597;-0.6024716866106871;-48.3;-2.25;-64.95;0.0;0.0;0.0
15.7972;2025-05-11 08:32:16;1005.9329131318808;36.15769946481301;80.85669584971332;2.6829442626953117;0.3399766357421875;-0.8379705810546875;2.451454894656489;0.12443798215267177;-0.8857213119389313;-48.0;-4.5;-66.45;0.0;0.0;0.0
15.8335;2025-05-11 08:32:16;1005.9329131318808;36.15769946481301;80.85669584971332;2.680550061035156;0.8475473876953125;-1.3838485595703125;2.2598683653893135;0.018918836687022902;-0.9203614354503817;-48.15;-7.05;-65.25;0.0;0.0;0.0
15.8757;2025-05-11 08:32:16;1006.0380177577058;36.15769946481301;79.97693103546887;2.338179223632812;1.3096283081054687;-1.944091748046875;1.860707557541985;-0.003730474839694657;-0.8665360127633588;-48.3;-7.6499999999999995;-65.7;0.0;0.0;0.0
15.913;2025-05-11 08:32:16;1006.0380177577058;36.15769946481301;79.97693103546887;2.2974777954101544;1.4987702392578124;-1.93451494140625;1.3400398549160306;0.03943644830534352;-0.7373017058167939;-48.0;-8.1;-64.35;0.0;0.0;0.0
15.9748;2025-05-11 08:32:17;1006.0380177577058;36.15769946481301;79.97693103546887;2.342967626953124;1.8411410766601561;-2.4205378784179685;0.9366156472519085;0.09539357090076336;-0.6320490228396947;-48.0;-8.1;-64.95;0.0;0.0;0.0
16.0187;2025-05-11 08:32:17;1006.0430923909956;36.18986547274852;79.9344563505923;2.4123994750976543;1.3958195678710936;-2.1715409057617188;0.23741807729770995;0.23208882752671758;-0.47323737966412216;-49.65;-8.7;-64.5;0.0;0.0;0.0
16.0635;2025-05-11 08:32:17;1006.0430923909956;36.18986547274852;79.9344563505923;2.362121240234373;0.9600748657226562;-2.094926452636719;-0.24328025204580156;0.35119755990839696;-0.4455252808549619;-48.15;-7.05;-63.75;0.0;0.0;0.0
16.1062;2025-05-11 08:32:17;1006.0430923909956;36.18986547274852;79.9344563505923;2.2136807373046867;0.5985504150390625;-2.090138049316406;-0.6107320237557252;0.4471240557862596;-0.4516539180916031;-49.05;-7.199999999999999;-64.35;0.0;0.0;0.0
16.1478;2025-05-11 08:32:17;1006.1572748367587;36.18986547274852;78.97879504687849;1.9910199829101547;0.7685387329101562;-1.8411410766601561;-0.9749862456030536;0.5595712259541986;-0.532658514610687;-49.65;-3.5999999999999996;-62.699999999999996;0.0;0.0;0.0
16.1911;2025-05-11 08:32:17;1006.1572748367587;36.18986547274852;78.97879504687849;1.7659650268554667;0.44532150878906246;-1.455674609375;-1.1543155003969467;0.6195252858778627;-0.5918131870687023;-50.25;-3.4499999999999997;-62.849999999999994;0.0;0.0;0.0
16.2304;2025-05-11 08:32:17;1006.1572748367587;36.18986547274852;78.97879504687849;1.3972579711914044;0.5817910034179687;-1.4149731811523436;-1.377611065801527;0.713586544335878;-0.7039938947480916;-50.1;-0.8999999999999999;-61.5;0.0;0.0;0.0
16.2756;2025-05-11 08:32:17;1006.1635854298279;36.229863204355325;78.92598047314073;1.0333393188476556;0.8930372192382812;-1.1013327636718748;-1.5044472103511453;0.764480879648855;-0.7684778169770993;-49.8;-0.3;-59.099999999999994;0.0;0.0;0.0
16.3107;2025-05-11 08:32:17;1006.1635854298279;36.229863204355325;78.92598047314073;0.5521047851562493;1.216254443359375;-0.8858546142578124;-1.6592619161984734;0.8380245264885496;-0.8020520905343512;-50.1;2.85;-56.4;0.0;0.0;0.0
16.3498;2025-05-11 08:32:17;1006.1635854298279;36.229863204355325;78.92598047314073;0.44915411376953074;1.6112977172851561;-1.1085153686523437;-1.7884962231450383;0.8947810365496185;-0.7615497922748092;-51.3;7.199999999999999;-56.55;0.0;0.0;0.0
16.3902;2025-05-11 08:32:17;1006.1635854298279;36.229863204355325;78.92598047314073;0.32944403076171724;2.4660277099609376;-0.7565677246093749;-2.0530934742748093;0.9531363215419848;-0.5862174748091604;-51.9;9.75;-53.1;0.0;0.0;0.0
16.4375;2025-05-11 08:32:17;1006.1635854298279;36.229863204355325;78.92598047314073;0.35099184570312403;2.85388837890625;-0.8882488159179687;-2.421877558427481;1.051460979816794;-0.32508423603053443;-53.25;9.6;-51.15;0.0;0.0;0.0
16.4809;2025-05-11 08:32:17;1006.1719701339061;36.28300704355314;78.85580767821399;0.4659135253906239;3.4524387939453125;-1.0175357055664063;-2.9598653228091605;1.1849586865801527;0.0261133238778626;-51.15;11.7;-46.5;0.0;0.0;0.0
16.5136;2025-05-11 08:32:17;1006.1719701339061;36.28300704355314;78.85580767821399;0.4180294921874985;3.9887399658203124;-0.6464344482421874;-3.499185399633588;1.2838162698320612;0.46471058003053445;-51.9;12.45;-42.15;0.0;0.0;0.0
16.5571;2025-05-11 08:32:17;1006.1719701339061;36.28300704355314;78.85580767821399;0.33183823242187316;4.1946413085937495;-0.2609679809570312;-3.8373262976030538;1.2838162698320612;0.948073534259542;-52.8;11.549999999999999;-36.15;0.0;0.0;0.0
16.5997;2025-05-11 08:32:17;1006.3848988533308;36.28300704355314;77.07393525572591;0.1762151245117174;3.756502404785156;0.7110778930664062;-3.9220613689618324;0.9915069198931299;1.526830059389313;-53.699999999999996;10.2;-31.95;0.0;0.0;0.0
16.6364;2025-05-11 08:32:17;1006.3848988533308;36.28300704355314;77.07393525572591;0.001438403320310755;3.0693665283203124;1.6232687255859375;-3.7107566155419853;0.5451822515725192;1.8204717217709927;-53.4;5.1;-27.599999999999998;0.0;0.0;0.0
16.6816;2025-05-11 08:32:17;1006.3848988533308;36.32524241049458;77.07393525572591;-0.1948861328125009;2.094926452636719;1.9704279663085937;-3.353963343374046;0.0639509972519084;1.9121348178320614;-55.5;0.0;-27.75;0.0;0.0;0.0
16.7146;2025-05-11 08:32:17;1006.3915632681632;36.32524241049458;77.01816970207418;-0.32177882080078213;1.7908628417968748;2.070984436035156;-2.941745873587786;-0.34906586000000006;1.8617734074961834;-55.05;-4.5;-26.25;0.0;0.0;0.0
16.7657;2025-05-11 08:32:17;1006.3915632681632;36.32524241049458;77.01816970207418;-0.32177882080078213;0.5746083984375;1.9871873779296874;-2.615595787603054;-0.5672986381221374;1.749592699816794;-56.699999999999996;-10.2;-26.4;0.0;0.0;0.0
16.8079;2025-05-11 08:32:17;1006.4863619505933;36.32524241049458;76.2249589884045;-0.25474117431640764;0.17477672119140625;1.8698714965820311;-2.2364196663969467;-0.7871301911755726;1.5318928466717558;-55.5;-12.299999999999999;-29.549999999999997;0.0;0.0;0.0
16.8543;2025-05-11 08:32:17;1006.4863619505933;36.32524241049458;76.2249589884045;-0.005744201660156989;0.70868369140625;1.6112977172851561;-1.9654273155419848;-0.8598744505496184;1.4455590003816794;-54.75;-16.5;-31.349999999999998;0.0;0.0;0.0
16.8846;2025-05-11 08:32:17;1006.4863619505933;36.32524241049458;76.2249589884045;0.3485976440429681;0.8020575561523438;1.917755529785156;-1.6091669683511451;-0.9584655713129772;1.392266502671756;-55.8;-20.4;-33.6;0.0;0.0;0.0
16.9163;2025-05-11 08:32:17;1006.4933356759414;36.36943570835383;76.1666100001594;0.40605848388671717;0.6847416748046875;2.2481553588867187;-1.2499755337862597;-1.0892986531908397;1.3387075424732826;-54.75;-20.4;-36.449999999999996;0.0;0.0;0.0
16.955;2025-05-11 08:32:17;1006.4933356759414;36.36943570835383;76.1666100001594;0.4371831054687494;-0.1388636962890625;2.437297290039062;-0.764480879648855;-1.2648974331450382;1.2499755337862597;-55.5;-24.75;-37.949999999999996;0.0;0.0;0.0
16.9955;2025-05-11 08:32:18;1006.6165631749635;36.36943570835383;75.13562254455255;0.4108468872070308;-0.5099649536132812;2.3678654418945313;-0.1494854560763359;-1.4495559377099236;1.0519939047938933;-52.65;-28.799999999999997;-41.85;0.0;0.0;0.0
17.0347;2025-05-11 08:32:18;1006.6165631749635;36.36943570835383;75.13562254455255;0.06847604980468702;-0.928950244140625;1.7525556152343749;0.34666769760305344;-1.5521439958015268;0.8516141134045803;-50.55;-28.95;-45.6;0.0;0.0;0.0
17.0761;2025-05-11 08:32:18;1006.6165631749635;36.36943570835383;75.13562254455255;-0.0320804199218756;-1.0510545288085937;1.4628572143554686;0.7117213069160306;-1.5649341952519085;0.6352465727022901;-49.5;-30.9;-46.05;0.0;0.0;0.0
17.1254;2025-05-11 08:32:18;1006.6240229191462;36.41670575479823;75.07321359781854;-0.11827167968750096;-1.3096283081054687;1.350329736328125;0.9347504098320613;-1.5369556339541985;0.48176417929771;-48.6;-33.449999999999996;-48.0;0.0;0.0;0.0
17.1641;2025-05-11 08:32:18;1006.6240229191462;36.41670575479823;75.07321359781854;-0.28107739257812625;-1.3814543579101561;1.5155296508789062;1.283283344854962;-1.516438022335878;0.3533292598167939;-45.75;-32.85;-49.949999999999996;0.0;0.0;0.0
17.2136;2025-05-11 08:32:18;1006.7346013172352;36.41670575479823;74.14814785970886;-0.3169904174804703;-1.5969325073242187;1.7525556152343749;1.6717856531603055;-1.497519185648855;0.23901685222900768;-48.6;-35.25;-50.25;0.0;0.0;0.0
17.2615;2025-05-11 08:32:18;1006.7346013172352;36.41670575479823;74.14814785970886;-0.42472949218750067;-1.6017209106445311;1.9680337646484374;2.1402267080305344;-1.523366047038168;0.15348239340458017;-45.15;-35.25;-50.55;0.0;0.0;0.0
17.2931;2025-05-11 08:32:18;1006.7346013172352;36.41670575479823;74.14814785970886;-0.32417302246093804;-1.4987702392578124;2.133233679199219;2.6382450991297715;-1.5540092332213742;0.08207044647328245;-44.25;-37.8;-49.65;0.0;0.0;0.0
17.3327;2025-05-11 08:32:18;1006.7389714927147;36.44439649206447;74.11158997141618;-0.21643394775390767;-1.0199299072265624;2.109291662597656;3.1381287276488554;-1.59877493129771;0.08926493366412214;-42.6;-39.6;-48.0;0.0;0.0;0.0
17.3703;2025-05-11 08:32:18;1006.7389714927147;36.44439649206447;74.11158997141618;-0.12306008300781279;-0.34237083740234375;1.9536685546875;3.709157840610687;-1.617693767984733;0.24594487693129774;-42.9;-41.55;-45.449999999999996;0.0;0.0;0.0
17.4112;2025-05-11 08:32:18;1006.8819187161796;36.44439649206447;72.9158624577914;-0.04165722656250104;0.3136404174804687;1.8626888916015625;4.015589702442749;-1.5564073956183209;0.5073445781984733;-42.0;-44.4;-43.5;0.0;0.0;0.0
17.4519;2025-05-11 08:32:18;1006.8819187161796;36.44439649206447;72.9158624577914;0.4395773071289053;1.1348515869140625;1.85790048828125;4.132566734916031;-1.3645544038625956;0.9280888476183208;-42.0;-45.15;-36.9;0.0;0.0;0.0
17.4964;2025-05-11 08:32:18;1006.8819187161796;36.473765455831696;72.9158624577914;0.7244873046874982;0.86191259765625;2.0278888061523435;4.114713748183206;-1.138594213572519;1.2715589953587787;-38.55;-45.0;-32.699999999999996;0.0;0.0;0.0
17.5546;2025-05-11 08:32:18;1006.8865541157329;36.473765455831696;72.87709048493929;0.9734842773437489;0.28012159423828126;2.080561242675781;4.069415125129772;-0.8851883869618321;1.4322358759541984;-36.75;-45.6;-28.05;0.0;0.0;0.0
17.5994;2025-05-11 08:32:18;1006.8865541157329;36.473765455831696;72.87709048493929;1.1530494018554673;0.28490999755859375;2.437297290039062;4.274324778824428;-0.6906707703206107;1.475935724076336;-36.3;-45.75;-24.3;0.0;0.0;0.0
17.6504;2025-05-11 08:32:18;1007.0069800854109;36.473765455831696;71.86985958691817;1.7013215820312482;-0.055066638183593745;2.882618798828125;4.812845468183207;-0.5185360027175573;1.5023155104427481;-34.8;-44.25;-19.05;0.0;0.0;0.0
17.6888;2025-05-11 08:32:18;1007.0069800854109;36.473765455831696;71.86985958691817;2.081999645996092;0.46686932373046874;2.4684219116210935;5.251176261847329;-0.33147933575572525;1.495387485740458;-32.4;-40.199999999999996;-10.95;0.0;0.0;0.0
17.7346;2025-05-11 08:32:18;1007.0069800854109;36.473765455831696;71.86985958691817;2.433947290039061;0.8164227661132812;2.2936451904296873;5.545617311694657;-0.15215008096183208;1.5140398599389315;-30.15;-33.9;-5.3999999999999995;0.0;0.0;0.0
17.772;2025-05-11 08:32:18;1007.0132051777057;36.51320377860482;71.81779618190336;2.5177443481445305;1.4532804077148436;2.0973206542968748;5.963430493740458;0.22915774015267176;1.5236325095267176;-28.95;-28.95;-0.6;0.0;0.0;0.0
17.8297;2025-05-11 08:32:18;1007.0132051777057;36.51320377860482;71.81779618190336;2.5368979614257796;1.8818425048828125;1.5514426757812498;6.1387628112061075;0.4822971042748092;1.4700735493282444;-27.45;-20.4;2.1;0.0;0.0;0.0
17.8691;2025-05-11 08:32:18;1007.0132051777057;36.51320377860482;71.81779618190336;2.4842255249023424;2.3319524169921872;1.8219874633789062;6.313029278717558;0.7732741417709924;1.3650873288396947;-25.8;-11.7;5.55;0.0;0.0;0.0
17.9066;2025-05-11 08:32:18;1007.1770444993512;36.51320377860482;70.44762375694572;2.2926893920898426;3.3399113159179685;0.7398083129882812;6.3338133528244285;1.0599877794503818;1.2563706335114506;-23.849999999999998;-0.3;5.3999999999999995;0.0;0.0;0.0
17.953;2025-05-11 08:32:18;1007.1770444993512;36.51320377860482;70.44762375694572;1.9191939331054684;3.744531396484375;0.44053310546874996;6.121442749450383;1.3877366403664124;1.0935620530076338;-22.8;9.45;3.0;0.0;0.0;0.0
17.9962;2025-05-11 08:32:18;1007.1770444993512;36.541453924704726;70.44762375694572;1.536121667480467;4.259284753417968;-0.023942016601562498;5.8059511630076335;1.588382894244275;0.917430348076336;-21.75;18.3;-0.15;0.0;0.0;0.0
18.0371;2025-05-11 08:32:18;1007.1815040104267;36.541453924704726;70.4103318195444;1.1650204101562487;4.429273071289062;-0.0909796630859375;5.330315620946566;1.7626493617557253;0.7711424418625955;-20.55;26.4;-8.85;0.0;0.0;0.0
18.079;2025-05-11 08:32:19;1007.1815040104267;36.541453924704726;70.4103318195444;0.7388525146484373;4.666299035644531;-0.16041151123046873;4.793127244030535;1.9238591673282444;0.6459050722442748;-20.25;33.449999999999996;-14.7;0.0;0.0;0.0
18.12;2025-05-11 08:32:19;1007.3405846608975;36.541453924704726;69.08013314708093;0.3940874755859358;4.7117888671875;-0.354341845703125;4.242082817709925;2.0682818361221376;0.578756525129771;-19.349999999999998;37.5;-20.7;0.0;0.0;0.0
18.1582;2025-05-11 08:32:19;1007.3405846608975;36.541453924704726;69.08013314708093;-0.04883983154297056;4.675875842285156;-1.1013327636718748;3.634814806305344;2.2236294669465653;0.5832863874351145;-19.05;38.4;-25.65;0.0;0.0;0.0
18.1888;2025-05-11 08:32:19;1007.3405846608975;36.541453924704726;69.08013314708093;-0.154184704589845;4.910507604980468;-0.7972691528320313;3.1048209165801532;2.355528398778626;0.6408422849618322;-18.599999999999998;40.949999999999996;-31.799999999999997;0.0;0.0;0.0
18.2277;2025-05-11 08:32:19;1007.3461926562662;36.576976385642226;69.0332433826274;-0.2954426025390635;4.927267016601562;0.07900865478515624;2.6973997715877864;2.427739733175573;0.7492925178015267;-19.5;39.9;-35.55;0.0;0.0;0.0
18.2752;2025-05-11 08:32:19;1007.3461926562662;36.576976385642226;69.0332433826274;-0.18291512451171954;4.491522314453125;-0.3136404174804687;2.580689201603054;2.4064227340916036;0.8577427506412214;-20.25;39.9;-39.3;0.0;0.0;0.0
18.3209;2025-05-11 08:32:19;1007.4930179532529;36.576976385642226;67.80567784376298;-0.04644562988281287;4.513070129394531;0.3495534423828125;2.5473813905343516;2.3456692867022904;0.9720551582290078;-23.55;38.85;-43.65;0.0;0.0;0.0
18.359;2025-05-11 08:32:19;1007.4930179532529;36.576976385642226;67.80567784376298;0.1522731079101547;4.029441394042968;-0.11731588134765625;2.562836214870229;2.314493175541985;1.0623859418473285;-26.55;36.449999999999996;-45.449999999999996;0.0;0.0;0.0
18.4095;2025-05-11 08:32:19;1007.4930179532529;36.576976385642226;67.80567784376298;0.3629628540039054;3.411737365722656;-0.12689268798828124;2.6107994628091604;2.286781076732825;1.0517274423053438;-27.9;36.3;-49.65;0.0;0.0;0.0
18.4482;2025-05-11 08:32:19;1007.4993771393988;36.61725382166584;67.75251372701119;0.7891307495117168;2.5378537597656248;0.040701428222656245;2.7096570460610687;2.2388178287938936;0.9246248352671756;-31.2;33.9;-50.699999999999996;0.0;0.0;0.0
18.4858;2025-05-11 08:32:19;1007.4993771393988;36.61725382166584;67.75251372701119;1.1243189819335928;2.123656872558594;0.22026655273437498;3.004098095908397;2.1053201220305344;0.6690873087480916;-31.799999999999997;33.449999999999996;-53.85;0.0;0.0;0.0
18.5219;2025-05-11 08:32:19;1007.4993771393988;36.61725382166584;67.75251372701119;1.5169680541992179;1.7956512451171873;0.23223756103515625;3.2220644115419854;1.9878101645801527;0.42900460656488554;-35.699999999999996;27.0;-57.75;0.0;0.0;0.0
18.5664;2025-05-11 08:32:19;1007.661180344665;36.61725382166584;66.39989672979075;2.1227010742187495;2.3151930053710936;0.05027823486328125;3.316925057465649;1.8625727949618323;0.16067688059541985;-37.5;25.8;-59.55;0.0;0.0;0.0
18.609;2025-05-11 08:32:19;1007.661180344665;36.61725382166584;66.39989672979075;2.869691992187498;2.683900061035156;-0.603338818359375;3.15571525189313;1.793026085450382;0.05249311024427481;-41.699999999999996;20.4;-62.099999999999994;0.0;0.0;0.0
18.6522;2025-05-11 08:32:19;1007.6661268191253;36.64858071635089;66.35854874066666;3.4562713989257805;2.5713725830078125;-1.388636962890625;2.6177274875114507;1.875895919389313;-0.06821439706870229;-41.699999999999996;18.15;-62.849999999999994;0.0;0.0;0.0
18.6903;2025-05-11 08:32:19;1007.6661268191253;36.64858071635089;66.35854874066666;4.004543579101561;2.4660277099609376;-1.908178723144531;1.954235891022901;2.0472312995267177;-0.19451761664122139;-43.5;15.45;-62.4;0.0;0.0;0.0
18.7249;2025-05-11 08:32:19;1007.8306704459029;36.64858071635089;64.98320860864628;4.083552233886717;2.272097375488281;-1.4772224243164063;1.0831700159541986;2.2542726531297714;-0.3048330869007634;-46.35;15.6;-60.449999999999996;0.0;0.0;0.0
18.7607;2025-05-11 08:32:19;1007.8306704459029;36.64858071635089;64.98320860864628;4.121859460449217;2.403778466796875;-1.3168109130859373;0.5958101243969466;2.3824411101221377;-0.33787443548091606;-47.25;15.0;-59.099999999999994;0.0;0.0;0.0
18.8053;2025-05-11 08:32:19;1007.8306704459029;36.64858071635089;64.98320860864628;3.731604589843748;3.2034418212890623;-0.3591302490234375;0.04822971042748092;2.452520744610687;-0.2251608028244275;-48.0;15.0;-53.699999999999996;0.0;0.0;0.0
18.8429;2025-05-11 08:32:19;1007.8359707202806;36.68214524637057;64.9389092162358;3.0636223266601554;3.854664672851562;0.612915625;-0.08899847117557252;2.3496662240305346;0.03730474839694657;-50.25;14.25;-50.699999999999996;0.0;0.0;0.0
18.8874;2025-05-11 08:32:19;1007.8359707202806;36.68214524637057;64.9389092162358;2.30705460205078;3.859453076171875;0.316034619140625;-0.0929954085038168;2.217234367221374;0.33174579824427486;-50.25;15.75;-47.85;0.0;0.0;0.0
18.9283;2025-05-11 08:32:19;1007.8359707202806;36.68214524637057;64.9389092162358;1.7180809936523431;3.8379052612304685;1.0175357055664063;0.04183461070229008;2.0293783127938934;0.6520337094809161;-52.35;14.85;-44.699999999999996;0.0;0.0;0.0
18.9636;2025-05-11 08:32:19;1007.9586734850818;36.68214524637057;63.91341920149079;1.157837805175781;3.423708374023437;1.924938134765625;0.3525298723511451;1.7312067881068705;0.9049066111145039;-51.9;13.2;-39.3;0.0;0.0;0.0
19.0055;2025-05-11 08:32:19;1007.9586734850818;36.68214524637057;63.91341920149079;1.0333393188476556;2.959233251953125;2.032677209472656;0.7269096687633588;1.4754027990992369;1.0871669532824428;-53.699999999999996;10.5;-38.85;0.0;0.0;0.0
19.0469;2025-05-11 08:32:19;1007.9586734850818;36.72102416031004;63.91341920149079;0.971090075683593;2.442085693359375;1.908178723144531;1.1631087625190841;1.2052098357099237;1.178563586854962;-53.4;7.8;-36.3;0.0;0.0;0.0
19.0841;2025-05-11 08:32:20;1007.9648133844863;36.72102416031004;63.86210756484894;0.954330664062498;2.0254946044921875;1.68551796875;1.4684747743969468;1.0224165685648856;1.1407259134809162;-54.75;6.1499999999999995;-35.4;0.0;0.0;0.0
19.1271;2025-05-11 08:32:20;1007.9648133844863;36.72102416031004;63.86210756484894;1.2272696533203113;2.4779987182617185;0.2825157958984375;1.54308427119084;1.0016324944580153;1.0903645031450384;-56.699999999999996;4.05;-36.0;0.0;0.0;0.0
19.1737;2025-05-11 08:32:20;1008.0977604519034;36.72102416031004;62.75112021763906;1.4259883911132807;3.3207577026367185;-0.26336218261718747;1.0874334157709924;1.157513050259542;1.176431886946565;-54.9;2.85;-35.55;0.0;0.0;0.0
19.2071;2025-05-11 08:32:20;1008.0977604519034;36.72102416031004;62.75112021763906;1.4906318359374993;4.027047192382812;-0.25139117431640623;0.6144624985954199;1.2771547076183207;1.369084266167939;-56.4;1.65;-31.95;0.0;0.0;0.0
19.2444;2025-05-11 08:32:20;1008.0977604519034;36.74703667107529;62.75112021763906;1.646254943847655;4.898536596679687;0.3687070556640625;-0.09645942085496184;1.3946646650687025;1.9001440058473282;-54.75;-3.75;-25.95;0.0;0.0;0.0
19.2896;2025-05-11 08:32:20;1008.1018687429539;36.74703667107529;62.7167907041357;1.7827244384765617;4.726154077148437;1.886630908203125;-0.33361103566412215;1.2321225470534352;2.551644790351145;-55.05;-7.199999999999999;-26.25;0.0;0.0;0.0
19.326;2025-05-11 08:32:20;1008.1018687429539;36.74703667107529;62.7167907041357;1.6199187255859364;3.366247534179687;2.4349030883789062;-0.11830934491603054;0.919562047984733;2.9020429627938937;-55.05;-12.75;-23.7;0.0;0.0;0.0
19.3637;2025-05-11 08:32:20;1008.2288847219545;36.74703667107529;61.65548148473748;1.2799420898437486;2.176329309082031;2.4061726684570313;0.27099235085496187;0.6336477977709924;3.0046310208854963;-54.15;-15.899999999999999;-22.8;0.0;0.0;0.0
19.4017;2025-05-11 08:32:20;1008.2288847219545;36.74703667107529;61.65548148473748;1.3158551147460926;0.5003881469726562;2.1883003173828124;0.8191056898015268;0.5174701527633588;2.7616172313282448;-53.1;-22.2;-22.349999999999998;0.0;0.0;0.0
19.4358;2025-05-11 08:32:20;1008.2288847219545;36.78116060992865;61.65548148473748;1.7156867919921872;-0.48123453369140623;1.8818425048828125;1.2739571577557254;0.5489127264122138;2.410686133908397;-50.55;-25.05;-19.65;0.0;0.0;0.0
19.4802;2025-05-11 08:32:20;1008.2342744700297;36.78116060992865;61.61044868466276;2.022144604492187;-0.32561142578124996;1.9823989746093749;1.784499285816794;0.6163277360152672;2.0565574866259544;-46.5;-28.95;-17.849999999999998;0.0;0.0;0.0
19.5321;2025-05-11 08:32:20;1008.2342744700297;36.78116060992865;61.61044868466276;2.3669096435546866;-0.086191259765625;2.616862414550781;2.451454894656489;0.6293843979541985;1.7360031129007634;-44.85;-29.849999999999998;-16.2;0.0;0.0;0.0
19.5757;2025-05-11 08:32:20;1008.3644324701315;36.78116060992865;60.52300264588066;2.3860632568359357;0.622492431640625;3.4452561889648434;3.4448270519694657;0.5212006276030535;1.402658539725191;-43.5;-30.15;-11.7;0.0;0.0;0.0
19.6251;2025-05-11 08:32:20;1008.3644324701315;36.78116060992865;60.52300264588066;2.07721124267578;1.7166425903320313;3.6056677001953124;4.486695382198473;0.3194885237709924;1.2902113695572521;-42.75;-25.5;-8.4;0.0;0.0;0.0
19.6812;2025-05-11 08:32:20;1008.3644324701315;36.80661371186024;60.52300264588066;1.4642956176757806;3.4811692138671875;2.6886884643554687;5.075577481893131;0.20091271636641223;1.4727381742137406;-41.1;-21.75;-5.55;0.0;0.0;0.0
19.7187;2025-05-11 08:32:20;1008.3684529802505;36.80661371186024;60.48941383642487;1.121924780273437;3.821145849609375;1.465251416015625;5.035874571099237;0.31975498625954196;1.746128687465649;-38.699999999999996;-13.5;-0.6;0.0;0.0;0.0
19.759;2025-05-11 08:32:20;1008.3684529802505;36.80661371186024;60.48941383642487;0.5712583984374984;3.801992236328125;0.076614453125;4.686009323633589;0.6898713828549619;1.9534365035572523;-38.25;-10.799999999999999;-1.05;0.0;0.0;0.0
19.8167;2025-05-11 08:32:20;1008.4875550806405;36.80661371186024;59.49444058788238;0.03974562988281072;3.0047230834960934;-0.6177040283203125;4.238352342870229;1.0341409180610688;1.9678254779389315;-37.05;-5.1;-0.15;0.0;0.0;0.0
19.8512;2025-05-11 08:32:20;1008.4875550806405;36.80661371186024;59.49444058788238;-0.5181033569335955;2.422932080078125;-1.0702081420898437;3.5490138849923665;1.5028484354198477;1.8239357341221376;-36.0;-1.5;1.3499999999999999;0.0;0.0;0.0
19.8947;2025-05-11 08:32:20;1008.4875550806405;36.80661371186024;59.49444058788238;-0.9179350341796884;1.924938134765625;-0.4381389038085937;3.0080950332366414;1.8644380323816796;1.5609372579236642;-32.4;1.7999999999999998;2.55;0.0;0.0;0.0
19.9321;2025-05-11 08:32:20;1008.4941385455137;36.84828966996801;59.43944541232162;-0.9466654541015629;2.0302830078125;0.5530605834960938;2.8495498525496186;2.0133905634809164;1.2670291330534353;-30.45;6.1499999999999995;2.85;0.0;0.0;0.0
19.9806;2025-05-11 08:32:20;1008.4941385455137;36.84828966996801;59.43944541232162;-0.6138714233398446;3.0047230834960934;1.4796166259765624;3.005963333328245;1.935317054335878;1.1172772144885497;-29.25;10.5;2.6999999999999997;0.0;0.0;0.0
20.007;2025-05-11 08:32:20;1008.4941385455137;36.84828966996801;59.43944541232162;-0.07757025146484509;4.537012145996093;2.0566192260742184;3.141059815022901;1.7341378754809162;1.3267167304885497;-24.3;13.65;0.15;0.0;0.0;0.0
20.0514;2025-05-11 08:32:20;1008.5974562669805;36.84828966996801;58.57641573542297;0.7580061279296864;6.069301208496094;2.3487118286132813;3.1136141787022904;1.5699969825343514;1.6928361897557254;-25.8;15.899999999999999;-1.5;0.0;0.0;0.0
20.0848;2025-05-11 08:32:20;1008.5974562669805;36.84828966996801;58.57641573542297;1.9383475463867175;6.854599353027344;2.5905261962890624;3.0832374550076342;1.3853384779694657;2.340872961908397;-25.2;21.599999999999998;-2.1;0.0;0.0;0.0
20.1239;2025-05-11 08:32:21;1008.599444674879;36.860876368725386;58.55980694399156;3.3964163574218738;6.150704064941406;1.5059528442382812;2.8495498525496186;1.3709495035877866;3.1357305652519085;-26.7;22.8;-4.35;0.0;0.0;0.0
20.1637;2025-05-11 08:32:21;1008.599444674879;36.860876368725386;58.55980694399156;4.212839123535154;3.337517114257812;1.0630255371093749;2.7586861439541988;1.51510570989313;3.346235931206107;-28.05;24.15;-7.05;0.0;0.0;0.0
20.2002;2025-05-11 08:32:21;1008.599444674879;36.860876368725386;58.55980694399156;4.085946435546873;0.277727392578125;0.833182177734375;3.0131578205190843;1.7120214889312977;2.997969458671756;-30.599999999999998;24.45;-11.1;0.0;0.0;0.0
20.2453;2025-05-11 08:32:21;1008.7421820618563;36.860876368725386;57.36761806641795;3.6478075317382803;-1.8124106567382812;1.254561669921875;3.5151731489465656;1.840456408412214;2.4266738832213743;-31.349999999999998;28.349999999999998;-12.15;0.0;0.0;0.0
20.2787;2025-05-11 08:32:21;1008.7421820618563;36.860876368725386;57.36761806641795;3.010949890136718;-2.6527754394531247;1.4939818359375;4.83176430487023;1.89215013119084;1.1878897739541985;-32.4;29.25;-17.099999999999998;0.0;0.0;0.0
20.3139;2025-05-11 08:32:21;1008.7487664189149;36.90255232683316;57.31262667997695;1.868915698242187;-1.8291700683593748;1.6807295654296874;6.586419791969466;1.5766585447480919;-0.2944410498473283;-32.85;34.5;-23.849999999999998;0.0;0.0;0.0
20.3643;2025-05-11 08:32:21;1008.7487664189149;36.90255232683316;57.31262667997695;1.064463940429686;-0.2561795776367187;1.6160861206054686;7.2501778509465655;1.2358530218931298;-0.8020520905343512;-30.45;36.6;-33.6;0.0;0.0;0.0
20.4023;2025-05-11 08:32:21;1008.7487664189149;36.90255232683316;57.31262667997695;0.25522377929687323;1.5370774658203123;0.6488286499023437;7.642410634091604;0.6960000200916031;-1.0762419912519086;-29.4;37.5;-47.4;0.0;0.0;0.0
20.4413;2025-05-11 08:32:21;1008.8347163573636;36.90255232683316;56.59481464242493;-0.3576918457031262;1.8291700683593748;-1.5897499023437498;7.355696996412214;0.4180796445343512;-1.0157550063511451;-27.45;32.4;-58.8;0.0;0.0;0.0
20.4925;2025-05-11 08:32:21;1008.8347163573636;36.90255232683316;56.59481464242493;-0.9275118408203138;3.189076611328125;-2.7557261108398436;6.355663276885497;0.42021134444274816;-0.7594180923664122;-28.2;26.25;-67.95;0.0;0.0;0.0
20.5348;2025-05-11 08:32:21;1008.8347163573636;36.92576779343011;56.59481464242493;-1.3943811645507829;2.3870190551757813;-2.987963671875;5.391868455801528;0.6022052241221375;-0.6168606609923665;-27.15;16.5;-74.55;0.0;0.0;0.0
