Time (s);Timestamp;Pressure (hPa);Temperature (°C);Altitude (m);Accel_X (m/s²);Accel_Y (m/s²);Accel_Z (m/s²);Gyro_X (°/s);Gyro_Y (°/s);Gyro_Z (°/s);Mag_X (µT);Mag_Y (µT);Mag_Z (µT);GPS_Latitude;GPS_Longitude;GPS_Altitude (m)
0.0;2025-05-04 11:22:45;991.9279017505593;40.11663578063484;0.017844380433121865;10.788272680664061;0.4070142822265625;0.12689268798828124;-0.011990811984732825;0.002931087374045802;0.0013323124427480919;-46.199999999999996;-12.75;-55.8;0.0;0.0;0.0
0.13;2025-05-04 11:22:45;991.9171355177161;40.119432824803155;0.10940535487314551;10.08677159423828;0.22266075439453123;1.4053963745117186;0.0026646248854961837;0.0021316999083969466;0.031709036137404584;-45.9;-10.95;-54.6;0.0;0.0;0.0
0.26;2025-05-04 11:22:45;991.6241955347231;40.119432824803155;2.6010099914934024;37.05505909423828;0.9145850341796874;0.009576806640625;-0.003730474839694657;0.009326187099236643;0.07061255946564887;-42.15;-15.149999999999999;-54.9;0.0;0.0;0.0
0.39;2025-05-04 11:22:45;990.8390348747366;40.13201952356053;9.282144359979556;59.095499243164056;-2.3319524169921872;0.7589619262695312;0.2909770374961832;0.1713353801374046;0.2600673888244275;-44.4;-17.849999999999998;-52.35;0.0;0.0;0.0
0.53;2025-05-04 11:22:46;990.8388598978518;40.13090070589321;9.283633761073814;42.882545935058594;1.5011644409179687;-0.277727392578125;0.670952546167939;-0.02558039890076336;0.3477335475572519;-43.949999999999996;-21.15;-51.449999999999996;0.0;0.0;0.0
0.66;2025-05-04 11:22:46;990.1084132576568;40.122509573388285;15.503043546418947;36.33201019287109;2.789244934082031;0.4836287353515625;0.34480246018320615;0.1324318568091603;0.1700030676946565;-43.5;-25.5;-49.949999999999996;0.0;0.0;0.0
0.79;2025-05-04 11:22:46;990.4982746147456;40.122509573388285;12.183095241469571;33.47812181396484;2.0278888061523435;0.3591302490234375;0.5465145640152672;0.21290352835114507;-0.4268729066564886;-44.1;-25.65;-49.05;0.0;0.0;0.0
0.92;2025-05-04 11:22:46;990.501817234245;40.14516563115157;12.152932153892648;33.47572761230469;-0.928950244140625;0.17956512451171874;0.5784900626412214;0.18679020447328246;-0.5126738279694657;-45.15;-21.75;-47.699999999999996;0.0;0.0;0.0
1.05;2025-05-04 11:22:46;989.7869289068353;40.13761361189715;18.241509128252538;31.617827124023435;-0.29927520751953124;-0.12689268798828124;1.1404594509923667;0.017852986732824427;0.16307504299236644;-46.5;-23.55;-43.5;0.0;0.0;0.0
1.18;2025-05-04 11:22:46;989.1341635419395;40.13761361189715;23.8041066913566;31.012094104003904;1.1156979736328125;-0.02633621826171875;0.9323522474351146;0.4897580539541985;0.21556815323664125;-45.75;-27.0;-40.199999999999996;0.0;0.0;0.0
1.33;2025-05-04 11:22:47;986.7251532236094;40.139012133981296;44.35846094533732;31.71120098876953;0.5530605834960938;-1.0797849487304687;0.9701899208091604;-0.23208882752671758;-0.47723431699236646;-47.1;-27.15;-36.3;0.0;0.0;0.0
1.46;2025-05-04 11:22:47;986.7241930308519;40.13285863681102;44.36666167730662;32.350452832031245;-0.8403647827148437;0.7398083129882812;0.8857213119389313;-0.21316999083969468;0.007727412167938932;-47.699999999999996;-28.2;-35.4;0.0;0.0;0.0
1.59;2025-05-04 11:22:47;986.7776679811554;40.1253066175566;43.909957247434065;31.763873425292967;1.9847931762695312;-0.36631285400390623;0.38983462074809166;0.19052067931297711;-0.2888453375877863;-46.949999999999996;-28.2;-32.85;0.0;0.0;0.0
1.72;2025-05-04 11:22:47;984.9230439140181;40.12111105130414;59.76114848729834;28.70408370361328;-0.3016694091796875;3.902548706054687;0.3893016957709924;-0.12337213219847329;-0.180128642259542;-46.35;-26.4;-32.699999999999996;0.0;0.0;0.0
1.86;2025-05-04 11:22:47;984.1021254351992;40.12111105130414;66.7851318549891;7.5465236328125;-0.46686932373046874;-2.7150246826171873;0.05542419761832062;0.2019785663206107;0.15001838105343512;-46.199999999999996;-28.5;-29.25;0.0;0.0;0.0
1.99;2025-05-04 11:22:49;979.280033763638;40.09453913170522;108.14020230219079;-1.5179238525390624;-1.0079588989257813;-1.0630255371093749;-0.6640245214656488;0.023448698992366415;0.13562940667175574;-46.5;-15.45;-40.5;0.0;0.0;0.0
2.11;2025-05-04 11:22:49;978.6356132485727;40.09118267870325;113.6793439869588;-1.2569558715820313;0.0909796630859375;-0.18914193115234373;-0.5950107369312978;-0.18412557958778628;0.09645942085496184;-48.0;-17.7;-42.0;0.0;0.0;0.0
2.24;2025-05-04 11:22:49;978.6361346616053;40.09453913170522;113.67486096719716;-1.01514150390625;-0.18435352783203124;0.3806780639648437;-0.8028514780000001;0.1263032195725191;-0.002398162396946565;-46.5;-14.549999999999999;-43.8;0.0;0.0;0.0
2.37;2025-05-04 11:22:49;978.1280660075874;40.09565794937254;118.04406553601557;-0.8283937744140625;-0.5123591552734374;0.21068974609375;-0.7602174798320612;0.2688606509465649;-0.002931087374045802;-47.25;-15.75;-41.25;0.0;0.0;0.0
2.51;2025-05-04 11:22:49;977.6434995510605;40.09565794937254;122.2128722192041;-0.7613561279296874;-0.0909796630859375;-0.028730419921875;-0.668820846259542;0.14602144372519085;0.08500153384732825;-48.3;-15.45;-40.949999999999996;0.0;0.0;0.0
2.64;2025-05-04 11:22:49;977.2133486771106;40.09258120078741;125.91493452069405;-0.6512228515624999;-0.6679822631835937;-0.411802685546875;-0.472704454687023;-0.06608269716030535;0.07354364683969467;-48.75;-12.75;-41.55;0.0;0.0;0.0
2.76;2025-05-04 11:22:50;977.2134355111411;40.09314060962106;125.91418705676877;-0.46208092041015625;-0.3711012573242187;-0.033518823242187495;-0.4588484052824428;-0.14255743137404583;0.07247779688549619;-48.75;-12.299999999999999;-42.3;0.0;0.0;0.0
2.89;2025-05-04 11:22:50;976.8016261686269;40.091742087536915;129.45963053304288;-0.37828386230468747;-0.5482721801757812;0.181959326171875;-0.4327350814045802;-0.04449923558778626;0.08739969624427482;-46.5;-12.75;-42.75;0.0;0.0;0.0
3.02;2025-05-04 11:22:50;976.466091343791;40.091742087536915;132.34928883612932;-0.29448680419921874;-0.5051765502929687;0.5410895751953124;-0.41594794462595425;0.11564472003053436;0.19425115415267177;-46.5;-11.549999999999999;-43.8;0.0;0.0;0.0
3.15;2025-05-04 11:22:50;976.193197958962;40.093700018454726;134.70006592852053;-0.17477672119140625;-0.5530605834960938;0.689530078125;-0.37038285908396945;0.2744563632061069;0.20943951600000002;-48.75;-12.299999999999999;-41.25;0.0;0.0;0.0
3.29;2025-05-04 11:22:50;976.1947166996719;40.103489673043796;134.68698161479506;-0.13407529296874998;-0.7350199096679687;0.02633621826171875;-0.3767779588091604;0.34480246018320615;0.47083921726717565;-46.35;-15.6;-39.6;0.0;0.0;0.0
3.41;2025-05-04 11:22:50;975.9058627203826;40.097056471456696;137.1758241949604;-0.016759411621093748;-0.38307226562499996;-0.06943184814453125;-0.3058989368549619;0.2699265009007634;0.6139295736183207;-48.9;-19.05;-39.3;0.0;0.0;0.0
3.54;2025-05-04 11:22:51;975.7566372679237;40.097056471456696;138.46182399298172;0.0143652099609375;-0.1292868896484375;-0.0909796630859375;-0.22036447803053438;0.1859908170076336;0.5974088993282443;-47.4;-22.2;-37.8;0.0;0.0;0.0
3.68;2025-05-04 11:22:51;975.539486411538;40.09593765378938;140.33347797687412;0.086191259765625;-0.30406361083984373;-0.05746083984375;-0.1782634048396947;0.08953139615267176;0.5262634148854962;-47.1;-27.15;-37.05;0.0;0.0;0.0
3.79;2025-05-04 11:22:51;975.5403105734363;40.10125203770916;140.3263737710512;0.15322890625;-0.2059013427734375;0.06943184814453125;-0.15135069349618321;0.07807350914503818;0.520134777648855;-45.75;-28.2;-37.65;0.0;0.0;0.0
3.93;2025-05-04 11:22:51;975.3949639194718;40.108244648129926;141.5793247798793;0.21787235107421873;-0.3687070556640625;0.21787235107421873;-0.14602144372519085;0.1204410448244275;0.5462481015267177;-45.15;-32.55;-37.05;0.0;0.0;0.0
4.06;2025-05-04 11:22:51;975.284621906999;40.108244648129926;142.53062159405792;0.143652099609375;-0.51714755859375;0.13168109130859373;-0.15294946842748094;0.15161715598473283;0.6256539231145039;-41.55;-36.15;-37.8;0.0;0.0;0.0
4.19;2025-05-04 11:22:51;975.2856194353897;40.114677849717026;142.5220211649849;0.18914193115234373;-0.6392518432617187;0.22744915771484372;-0.11111485772519085;0.19771516650381682;0.7223798064580154;-38.85;-39.9;-34.8;0.0;0.0;0.0
4.32;2025-05-04 11:22:51;975.2198094896662;40.11411844088336;143.08943258312425;0.25139117431640623;-0.6655880615234374;0.17956512451171874;-0.05462481015267176;0.22649311526717558;0.8484165635419848;-36.449999999999996;-42.15;-34.35;0.0;0.0;0.0
4.45;2025-05-04 11:22:52;975.1995489748573;40.12474720872294;143.26412438816138;0.33518823242187495;-0.7541735229492187;0.35194764404296874;0.07940582158778627;0.2747228256946565;0.9360827222748092;-31.349999999999998;-49.199999999999996;-32.699999999999996;0.0;0.0;0.0
4.58;2025-05-04 11:22:52;986.9917497926317;40.12474720872294;142.08178574463585;1.2521674682617188;-1.5370774658203123;2.5354595581054684;0.13429709422900765;0.2909770374961832;0.9227595978473284;-24.75;-52.35;-32.699999999999996;0.0;0.0;0.0
4.72;2025-05-04 11:22:52;975.7242715445816;40.13677449864666;138.74076735662203;2.133233679199219;-3.143586779785156;0.5698199951171875;0.6301837854198474;0.4892251289770993;0.6717519336335879;-21.15;-54.9;-28.5;0.0;0.0;0.0
4.85;2025-05-04 11:22:52;975.72813247239;40.16166819174458;138.7074916310654;1.1731588134765625;-1.8100164550781248;0.6296750366210937;1.3171240809007634;0.30110261206106875;0.46284534261068705;-15.45;-55.35;-22.05;0.0;0.0;0.0
4.98;2025-05-04 11:22:52;976.0087364723316;40.16166819174458;136.28936825425689;1.7453730102539062;-6.5768719604492185;-1.9297265380859374;1.5564073956183209;0.2803185379541985;0.499883628519084;-14.85;-53.699999999999996;-13.5;0.0;0.0;0.0
5.12;2025-05-04 11:22:53;975.8505563552732;40.229356660617626;137.6524265564678;-20.67393133544922;-4.7189714721679685;2.3391350219726563;2.9105697624274813;-8.731442824793893;3.1796968758625956;-14.85;-55.65;-29.25;0.0;0.0;0.0
5.23;2025-05-04 11:22:53;975.856283028651;40.26627764363927;137.60307595840186;4.745307690429687;-0.023942016601562498;-19.627665209960938;-8.731442824793893;8.731176362305344;0.15055130603053438;-19.349999999999998;-51.0;-43.8;0.0;0.0;0.0
5.37;2025-05-04 11:22:53;975.9371287978043;40.30124069574312;136.9063985848867;3.794809631347656;-6.782773303222656;14.985308190917968;8.731176362305344;-6.838493306137406;2.47863406848855;-5.85;-58.65;-29.549999999999997;0.0;0.0;0.0
5.5;2025-05-04 11:22:53;976.137422463433;40.30124069574312;135.18059655395462;5.779602807617187;-13.740323327636718;9.68454571533203;8.731176362305344;0.3863706083969466;3.8866218579847334;4.95;5.55;11.85;0.0;0.0;0.0
5.62;2025-05-04 11:22:53;976.1484436470098;40.37228561761812;135.08564240806996;3.0621839233398433;7.958326318359375;-1.6639701538085936;8.731176362305344;0.9099693983969466;6.735638785557252;-12.15;13.049999999999999;-67.5;0.0;0.0;0.0
5.75;2025-05-04 11:22:54;976.306682029768;40.448924627829726;133.7224189664716;4.364629626464843;-4.723759875488281;5.063736511230468;8.731176362305344;5.494456513893131;-1.5089770726564886;-29.7;-51.0;-30.299999999999997;0.0;0.0;0.0
5.88;2025-05-04 11:22:54;976.498004188178;40.448924627829726;132.07441774482848;8.609549169921875;11.595118640136718;3.9815573608398434;6.461981809816794;-1.0887657282137406;4.164009308564886;-35.4;-7.199999999999999;3.15;0.0;0.0;0.0
6.0;2025-05-04 11:22:54;976.6881639698616;40.50430610236221;130.43668799121164;21.037849987792967;-9.696516723632811;21.10009923095703;8.731176362305344;-0.6086003238473283;-0.531326202167939;-36.6;15.899999999999999;-8.85;0.0;0.0;0.0
6.13;2025-05-04 11:22:54;976.6909417562975;40.52220718503938;130.41276653099786;14.958971972656249;-6.986280444335937;-6.488286499023437;8.731176362305344;1.3157917684580154;5.386272743541985;-39.449999999999996;-16.95;-56.55;0.0;0.0;0.0
6.26;2025-05-04 11:22:54;976.8137273431139;40.525843342458174;129.35542906696492;11.384428894042967;9.880870251464843;3.210624426269531;8.731176362305344;-0.8302971143206108;0.033041348580152674;-39.6;1.65;-2.6999999999999997;0.0;0.0;0.0
6.39;2025-05-04 11:22:54;976.9565128941149;40.525843342458174;128.12600222680118;8.21690009765625;0.29927520751953124;2.3319524169921872;8.731176362305344;2.966526885022901;-0.3360091980610687;-42.15;16.349999999999998;-30.75;0.0;0.0;0.0
6.51;2025-05-04 11:22:54;976.9576415347833;40.53311565729577;128.11628486839146;6.962338427734375;6.794744311523437;-3.8953661010742184;6.403093599847329;1.9281225671450382;2.447191494839695;-45.0;-10.799999999999999;-51.9;0.0;0.0;0.0
6.66;2025-05-04 11:22:55;977.0036414027616;40.534514179379926;127.72024342937105;5.849034655761718;-4.841075756835937;3.1747114013671873;4.972190036335879;4.4064901731450385;0.05675651006106871;-45.75;-28.95;-16.349999999999998;0.0;0.0;0.0
6.79;2025-05-04 11:22:55;977.0794020987639;40.534514179379926;127.06800544349284;7.860164050292968;5.286397265624999;7.029376074218749;7.039139560015268;-2.625721362167939;-0.6176600484580154;-41.55;8.7;-10.65;0.0;0.0;0.0
6.92;2025-05-04 11:22:55;977.2281171865368;40.53479388379675;125.78780854412535;9.112331518554686;1.5945383056640625;-0.055066638183593745;4.779004732137405;-1.402658539725191;2.795990892351145;-47.25;2.6999999999999997;-39.0;0.0;0.0;0.0
7.07;2025-05-04 11:22:55;977.2279869393606;40.53395477054626;125.78892969309055;11.853692419433592;-0.4261678955078125;3.488351818847656;8.731176362305344;-0.8332282016946565;1.4881929985496183;-45.15;-30.299999999999997;-37.8;0.0;0.0;0.0
7.22;2025-05-04 11:22:55;977.3371500560011;40.53787063238188;124.84931172367627;12.454637036132812;-3.6942531616210936;-3.4811692138671875;8.025583692625954;2.054692249206107;1.077307841206107;-36.6;-33.0;-4.2;0.0;0.0;0.0
7.37;2025-05-04 11:22:55;977.4509606581395;40.53787063238188;123.86978115235316;10.302249743652343;0.9744400756835937;3.0262708984374997;8.731176362305344;0.2065084286259542;-3.157047564335878;-24.9;27.45;-6.1499999999999995;0.0;0.0;0.0
7.5;2025-05-04 11:22:56;977.5549848095671;40.54793999138779;122.9745601322012;11.250353601074218;6.6271501953125;-1.3934253662109375;7.108686269526718;-1.3360429175877864;1.8204717217709927;-17.7;21.45;-63.3;0.0;0.0;0.0
7.64;2025-05-04 11:22:56;977.5563743616608;40.556890532726385;122.96260231358858;12.842497705078124;0.430956298828125;0.9002198242187499;3.95163870519084;1.3168576184122138;2.719516158137405;-25.05;-21.75;-69.6;0.0;0.0;0.0
7.76;2025-05-04 11:22:56;977.6955624870959;40.57702925073819;121.76488581703752;13.577517614746093;-0.7685387329101562;0.07422025146484375;5.388404443450383;1.7410659001832063;1.4133170392671757;-21.75;-51.6;-43.65;0.0;0.0;0.0
7.9;2025-05-04 11:22:56;977.7773540958898;40.57702925073819;121.06113185175505;11.552023010253906;-3.574543078613281;1.1372457885742187;8.731176362305344;1.6326156673435117;-2.340340036931298;-21.75;-39.6;2.6999999999999997;0.0;0.0;0.0
8.02;2025-05-04 11:22:56;977.8679942256349;40.60276205708661;120.28129883946593;10.55364091796875;4.393360046386719;0.9265560424804687;8.446061499557253;-1.8737642194809163;-0.888119474335878;-25.95;21.9;-5.85;0.0;0.0;0.0
8.14;2025-05-04 11:22:56;977.8699486114009;40.615348755843996;120.26448469637967;10.946289990234375;4.091690637207031;-0.5434837768554687;2.9310873740458017;-0.031709036137404584;2.7994549047022903;-36.449999999999996;22.349999999999998;-33.9;0.0;0.0;0.0
8.27;2025-05-04 11:22:56;977.9845207513484;40.63017308993602;119.27883516044558;12.449848632812499;-0.8116343627929687;-1.0103531005859374;2.2127045049160308;1.0551914546564887;2.639843874061069;-47.699999999999996;-4.5;-39.0;0.0;0.0;0.0
8.4;2025-05-04 11:22:57;978.0779060413998;40.63017308993602;118.4755225558966;12.789825268554686;-2.454056701660156;-0.3447650390625;4.343338563358779;2.298771888717557;0.32455131105343515;-49.05;-15.0;-28.5;0.0;0.0;0.0
8.54;2025-05-04 11:22:57;978.0816415133444;40.65422766978347;118.44339082443535;12.169727038574218;0.7948749511718749;0.1771709228515625;4.747562158488551;1.8918836687022902;-1.186823924;-46.35;-3.5999999999999996;-15.149999999999999;0.0;0.0;0.0
8.68;2025-05-04 11:22:57;978.0841173494005;40.67017082154281;118.42209426648391;10.589553942871094;0.09576806640624999;4.132392065429687;5.308732159374046;0.7706095168854963;-2.0959939349312977;-40.05;16.8;-16.2;0.0;0.0;0.0
8.8;2025-05-04 11:22:57;978.2476458804138;40.67017082154281;117.01555704711977;9.579200842285156;4.244919543457031;2.602497204589844;5.129935829557252;-2.5028821549465654;0.45378561800000006;-33.3;20.25;-52.05;0.0;0.0;0.0
8.93;2025-05-04 11:22:57;978.3386576310122;40.68807190421998;116.23283167766023;9.449913952636718;0.8116343627929687;-0.48123453369140623;3.544217560198474;-1.3722818160305343;2.0877335977862597;-31.65;-0.75;-64.64999999999999;0.0;0.0;0.0
9.06;2025-05-04 11:22:57;978.3421764128143;40.71072796198327;116.20257039793415;10.014945544433592;0.3711012573242187;-2.070984436035156;3.2964074458473283;0.07940582158778627;1.7807688109770994;-26.4;-27.75;-65.39999999999999;0.0;0.0;0.0
9.19;2025-05-04 11:22:57;978.4344486555714;40.71072796198327;115.4090669563573;10.884040747070312;0.8068459594726562;-2.8131869506835936;1.2172006476946566;1.7373354253435116;1.3357764550992368;-24.75;-40.35;-57.449999999999996;0.0;0.0;0.0
9.32;2025-05-04 11:22:58;978.439792262775;40.74513160525345;115.36311598224383;11.549628808593749;1.1372457885742187;-1.158793603515625;-1.0727779789007634;2.61106592529771;1.6025054061374047;-25.2;-44.85;-51.9;0.0;0.0;0.0
9.45;2025-05-04 11:22:58;978.5308437781946;40.74513160525345;114.5801731498035;13.342885852050781;-3.1771056030273437;1.2832920898437499;0.33174579824427486;2.3776447853282447;1.2017458233587788;-27.45;-46.35;-49.65;0.0;0.0;0.0
9.6;2025-05-04 11:22:58;978.6258774309638;40.78904519869586;113.76305123091475;12.442666027832031;-2.4013842651367185;1.1468225952148436;4.276722941221375;1.6859081650534353;-1.0916968155877862;-27.9;-49.05;-31.799999999999997;0.0;0.0;0.0
9.73;2025-05-04 11:22:58;978.6334374274222;40.837713767224415;113.69805134462587;10.857704528808593;-0.0383072265625;0.8930372192382812;5.407056817648855;0.4388637186412214;-2.147421195221374;-34.949999999999996;-35.1;-4.6499999999999995;0.0;0.0;0.0
9.86;2025-05-04 11:22:58;978.7175979506064;40.837713767224415;112.97447734464278;10.04846436767578;1.9656395629882812;1.8698714965820311;4.679880686396947;-0.6594946591603055;-1.5755926947938932;-39.0;-4.5;-1.05;0.0;0.0;0.0
9.99;2025-05-04 11:22:58;978.7230726848535;40.872956523745074;112.92740980839459;10.510545288085936;4.256890551757812;2.4061726684570313;3.0278132573893135;-1.7778377236030536;0.4242082817709924;-42.449999999999996;10.799999999999999;-12.0;0.0;0.0;0.0
10.12;2025-05-04 11:22:58;978.8176849521137;40.90120666984498;112.11404028925728;9.715670336914062;4.276044165039062;0.3902548706054687;0.49029097893129775;-2.0307106252366416;2.556707577633588;-47.85;4.05;-27.15;0.0;0.0;0.0
10.25;2025-05-04 11:22:58;978.9030474647208;40.90120666984498;111.38024434981955;10.338162768554687;0.11013327636718749;-2.24097275390625;-1.200147048427481;-1.355761141740458;2.483696855770993;-49.65;-12.15;-36.6;0.0;0.0;0.0
10.38;2025-05-04 11:22:59;978.9063934595806;40.92274390994095;111.35148245790009;11.602301245117188;-0.8571241943359375;-1.7645266235351562;-0.6469709221984734;-0.4790995544122138;1.0951608279389313;-46.5;-20.849999999999998;-43.05;0.0;0.0;0.0
10.52;2025-05-04 11:22:59;979.0042901606596;40.92274390994095;110.51000583801297;11.154585534667968;3.440467785644531;-0.3280056274414062;-1.4428943754961832;-0.32721593593893133;1.0677151916183207;-45.0;-25.05;-45.6;0.0;0.0;0.0
10.67;2025-05-04 11:22:59;979.0866950099718;40.96106341504675;109.80174311550184;9.361328491210937;4.110844250488281;-0.833182177734375;-4.6175284640763365;-1.153249650442748;2.5249985414961835;-41.25;-25.8;-57.3;0.0;0.0;0.0
10.79;2025-05-04 11:22:59;979.0912147102248;40.99015267439715;109.76289806970894;9.114725720214842;2.001552587890625;-1.7956512451171873;-6.523268182183207;-2.200447230442748;1.8297979088702292;-29.25;-10.95;-68.85;0.0;0.0;0.0
10.93;2025-05-04 11:22:59;979.1745372564474;40.99015267439715;109.0467995711133;10.905588562011719;3.057395520019531;-0.9816226806640624;-8.713856300549619;-1.8196723343053436;0.09219602103816796;-19.5;20.55;-59.699999999999996;0.0;0.0;0.0
11.05;2025-05-04 11:22:59;979.1824905559287;41.04133858267717;108.97844915294522;10.505756884765624;0.9648632690429687;4.450820886230469;-7.993075269022902;-2.187923493480916;-1.1543155003969467;-15.75;34.5;-16.5;0.0;0.0;0.0
11.19;2025-05-04 11:22:59;979.292095949527;41.04133858267717;108.03654945538324;10.01733974609375;-0.35194764404296874;2.4205378784179685;-5.608768921480916;-1.4396968256335878;-3.037672369465649;-14.25;13.2;10.35;0.0;0.0;0.0
11.32;2025-05-04 11:23:00;979.3958923459743;41.08469276728593;107.14464836945643;12.030863342285155;1.1348515869140625;4.469974499511719;-5.22239831308397;-0.04263399816793894;-2.517537591816794;-15.899999999999999;-16.95;17.55;0.0;0.0;0.0
11.46;2025-05-04 11:23:00;979.4013255466568;41.11965581938976;107.09796410152069;12.777854260253905;-0.9720458740234375;4.630386010742187;-2.4328025204580155;-0.9168974230992367;-2.5244656165190844;-20.849999999999998;-33.15;7.6499999999999995;0.0;0.0;0.0
11.59;2025-05-04 11:23:00;979.5202133004555;41.11965581938976;106.07648470612604;12.447454431152343;1.4891934326171874;-0.4429273071289062;-2.5647014522900764;0.02238284903816794;-2.518603441770993;-31.65;-33.15;1.05;0.0;0.0;0.0
11.73;2025-05-04 11:23:00;979.5260815418435;41.157415915661915;106.02606758258526;11.501744775390625;0.38307226562499996;1.9895815795898437;-4.5141410185190844;1.3432374047786262;-1.0336079930839694;-35.85;-37.949999999999996;-7.05;0.0;0.0;0.0
11.85;2025-05-04 11:23:00;979.6046418244108;41.18678487942914;105.3511387576869;10.692504614257812;-4.244919543457031;2.722207287597656;-1.475935724076336;1.062652404335878;-1.556140933129771;-37.5;-40.949999999999996;-17.849999999999998;0.0;0.0;0.0
11.98;2025-05-04 11:23:00;979.6851023926973;41.18678487942914;104.65992958437316;9.567229833984374;-2.7653029174804686;2.9041666137695312;1.882291019114504;0.32481777354198477;-3.0291455698320613;-41.85;-31.049999999999997;-12.9;0.0;0.0;0.0
12.12;2025-05-04 11:23:00;979.6921014099207;41.231817290538885;104.5998055986702;9.088389501953124;1.9967641845703124;2.9376854370117185;2.6012068132213746;-1.3083308187786262;-2.5604380524732826;-47.25;-7.199999999999999;-13.799999999999999;0.0;0.0;0.0
12.25;2025-05-04 11:23:00;979.7717483720622;41.231817290538885;103.91563506377103;10.137049829101562;3.402160559082031;1.3072341064453123;0.4764349295267176;-1.5404196463053437;-0.5185360027175573;-48.15;2.1;-21.3;0.0;0.0;0.0
12.38;2025-05-04 11:23:01;979.7769652599476;41.26538182055856;103.87082336328575;11.130643518066405;0.5530605834960938;2.7054478759765623;-0.02558039890076336;-1.427173088671756;-0.41594794462595425;-48.9;5.55;-30.15;0.0;0.0;0.0
12.51;2025-05-04 11:23:01;979.913699160414;41.29978546382874;102.69638385820956;11.750741748046874;2.559401574707031;4.402936853027343;0.9949709322442749;-2.6475712862290077;-0.3797090461832061;-45.75;7.199999999999999;-43.05;0.0;0.0;0.0
12.63;2025-05-04 11:23:01;980.0466882995815;41.29978546382874;101.55423626934916;13.376404675292967;3.4644098022460934;-0.13407529296874998;-0.9105023233740459;-2.9265575117404583;0.638177660076336;-36.75;5.3999999999999995;-58.05;0.0;0.0;0.0
12.76;2025-05-04 11:23:01;980.0510798202838;41.32803560992865;101.51652281278558;13.194445349121093;2.2840683837890623;-0.22744915771484372;-3.014756595450382;-1.6403430795114506;0.13456355671755726;-28.65;15.75;-61.05;0.0;0.0;0.0
12.89;2025-05-04 11:23:01;980.1420216508096;41.32803560992865;100.73556424576223;12.804190478515624;3.641580725097656;4.352658618164062;-3.476269625618321;-2.3627228859694656;0.32508423603053443;-24.0;29.099999999999998;-50.55;0.0;0.0;0.0
13.03;2025-05-04 11:23:01;980.2402441649277;41.36971156803642;99.89214906370663;11.346121667480467;1.9919757812499999;0.5674257934570313;-2.781335455480916;-3.3243860071450384;-0.4830964917404581;-15.0;33.449999999999996;-42.9;0.0;0.0;0.0
13.15;2025-05-04 11:23:01;980.247332184486;41.41530338797982;99.83128844190031;10.050858569335936;4.414907861328125;0.8379705810546875;-5.7928945010687025;-2.0450995996183208;-0.7410321806564887;-9.6;36.6;-24.0;0.0;0.0;0.0
13.29;2025-05-04 11:23:01;980.3188634069043;41.41530338797982;99.21711218481315;10.462661254882812;1.1516109985351561;4.525041137695312;-6.1091854749770995;-2.6166616375572525;-0.9494058467022902;-11.1;19.2;5.85;0.0;0.0;0.0
13.42;2025-05-04 11:23:02;980.3250819760475;41.45530111958661;99.16372046639846;12.425906616210936;-0.055066638183593745;1.7501614135742187;-3.835727522671756;-2.4615804692213743;-2.9899755840152675;-21.599999999999998;-2.25;14.25;0.0;0.0;0.0
13.55;2025-05-04 11:23:02;980.4421807518715;41.49110328494095;98.15837882896415;14.089876770019531;3.9145197143554684;1.8363526733398436;-5.304202297068703;-0.7508912927328245;-2.598542188335878;-30.15;-15.45;9.0;0.0;0.0;0.0
13.68;2025-05-04 11:23:02;980.5545110772671;41.49110328494095;97.19406768068477;13.09388887939453;-0.74699091796875;2.592920397949219;-5.019353896809161;-0.3663859217557252;-1.6984319020152674;-36.75;-33.9;-2.55;0.0;0.0;0.0
13.82;2025-05-04 11:23:02;980.560860889544;41.53194012979823;97.13955973993376;11.051634863281249;-1.8435352783203125;1.6352397338867186;-2.4967535177099243;0.5539755136946566;-2.5663002272213746;-44.699999999999996;-31.65;-14.25;0.0;0.0;0.0
13.95;2025-05-04 11:23:02;980.6246988834346;41.53194012979823;96.59157869687999;9.504980590820312;-0.22026655273437498;3.756502404785156;-0.6722848586106871;0.33067994829007635;-2.7866647052519085;-47.1;-19.05;-15.149999999999999;0.0;0.0;0.0
14.08;2025-05-04 11:23:02;980.7034364873583;41.56802199956938;95.9157401866179;10.153809240722655;1.4245499877929686;3.4644098022460934;-0.20943951600000002;-0.9163644981221375;-2.0965268599083973;-48.0;-4.2;-16.05;0.0;0.0;0.0
14.2;2025-05-04 11:23:02;980.707959982865;41.59711125891978;95.87691442572017;11.937489477539062;0.9888052856445312;2.5641899780273434;0.19132006677862595;-1.7415988251603056;-1.5675988201374047;-48.3;5.3999999999999995;-27.3;0.0;0.0;0.0
14.33;2025-05-04 11:23:02;980.8020895199359;41.59711125891978;95.06902104664466;13.723563916015625;0.74699091796875;1.0223241088867188;0.5065451907328244;-1.73840127529771;-1.478866811450382;-45.15;14.85;-37.05;0.0;0.0;0.0
14.46;2025-05-04 11:23:03;980.805047343564;41.61613115926427;95.04363570603587;12.102689392089843;3.143586779785156;2.2170307373046874;0.06928024702290077;-1.790894385541985;-1.2209311225343513;-34.949999999999996;21.15;-49.65;0.0;0.0;0.0
14.59;2025-05-04 11:23:03;980.88557181465;41.661163570374015;94.3525631655627;10.548852514648438;3.564966271972656;2.806004345703125;-1.6203583928702292;-2.5647014522900764;-0.07887289661068704;-26.7;24.75;-49.65;0.0;0.0;0.0
14.72;2025-05-04 11:23:03;980.967167248659;41.661163570374015;93.65234632356362;10.007762939453125;2.269703173828125;0.842758984375;-2.318756575358779;-2.875396713938932;-0.18918836687022905;-20.099999999999998;29.25;-49.949999999999996;0.0;0.0;0.0
14.85;2025-05-04 11:23:03;980.9733009074464;41.70060189314715;93.59971181363802;10.225635290527343;3.2632968627929686;0.7924807495117187;-4.008128752763359;-2.3715161480916036;-0.5537090512061069;-12.6;36.3;-36.9;0.0;0.0;0.0
14.98;2025-05-04 11:23:03;981.0301666661314;41.73640405850148;93.11174474126328;9.787496386718749;2.4301146850585935;2.0877438476562498;-5.283684685450382;-2.2718591773740457;-0.8982450489007635;-8.7;32.25;-10.65;0.0;0.0;0.0
15.1;2025-05-04 11:23:03;981.1097342549966;41.73640405850148;92.42901090783367;10.51533369140625;0.7709329345703124;2.7748797241210936;-4.818441180442749;-2.0168545758320615;-1.9553017409770994;-13.35;11.549999999999999;9.75;0.0;0.0;0.0
15.23;2025-05-04 11:23:03;981.1157813477804;41.77528297244095;92.37712534691701;12.140996618652343;1.438915197753906;3.265691064453125;-4.171736720732825;-1.4548851874809163;-2.4306708205496186;-21.15;-8.1;13.5;0.0;0.0;0.0
15.36;2025-05-04 11:23:04;981.2236136953069;41.77528297244095;91.45194044611843;12.959813586425781;0.7278373046875;3.5529952636718747;-3.0291455698320613;-1.4293047885801526;-2.5050138548549623;-29.849999999999998;-23.7;6.3;0.0;0.0;0.0
15.48;2025-05-04 11:23:04;981.2292695859203;41.81164454662894;91.40341604980006;11.722011328125;1.3311761230468748;1.3144167114257812;-3.007828570748092;-0.8041837904427482;-2.253739728152672;-38.55;-24.45;-3.0;0.0;0.0;0.0
15.62;2025-05-04 11:23:04;981.3088211889805;41.840174397145674;90.7209315262253;10.474632263183594;0.4213794921875;2.1883003173828124;-3.1655743639694656;0.20411026622900766;-1.7546554870992368;-43.949999999999996;-24.3;-7.6499999999999995;0.0;0.0;0.0
15.75;2025-05-04 11:23:04;981.3681821057093;41.840174397145674;90.21169495957503;9.710881933593749;-1.2641384765625;3.9983167724609374;-1.0024318819236642;-0.25953446384732826;-1.8092802972519084;-46.199999999999996;-20.4;-13.049999999999999;0.0;0.0;0.0
15.88;2025-05-04 11:23:04;981.3734468249392;41.87401863158219;90.16653197666739;9.045293872070312;0.040701428222656245;3.1866824096679687;1.7661133741068704;-1.5758591572824427;-2.190055193389313;-48.0;-6.45;-18.9;0.0;0.0;0.0
16.01;2025-05-04 11:23:04;981.4465336901875;41.87401863158219;89.53958227346044;9.469067565917967;1.8698714965820311;1.5418658691406248;1.810346147206107;-2.1682052693282445;-1.3312465927938932;-48.3;6.1499999999999995;-31.349999999999998;0.0;0.0;0.0
16.13;2025-05-04 11:23:04;981.5505596788737;41.90422670859991;88.64729748557245;11.635820068359374;3.2441432495117186;1.254561669921875;-0.520134777648855;-1.9028086307328247;-0.2544716765648855;-42.449999999999996;7.6499999999999995;-46.8;0.0;0.0;0.0
16.27;2025-05-04 11:23:04;981.5564340974878;41.941986804872045;88.59691183842597;13.481749548339844;2.379836450195312;2.9855694702148434;-1.5833201069618323;-2.146888270244275;0.17773047986259544;-37.199999999999996;11.85;-52.199999999999996;0.0;0.0;0.0
16.4;2025-05-04 11:23:05;981.6537343828951;41.941986804872045;87.76239023680665;11.79144317626953;2.2098481323242187;1.235408056640625;-1.3722818160305343;-2.683810184671756;-0.15508116833587787;-31.049999999999997;15.149999999999999;-56.85;0.0;0.0;0.0
16.53;2025-05-04 11:23:05;981.6600442820709;41.9825439453125;87.70827403220495;10.517727893066406;3.5410242553710933;-0.16519991455078123;-3.151984777053435;-2.0802726481068703;-0.14335681883969467;-20.25;25.2;-56.85;0.0;0.0;0.0
16.66;2025-05-04 11:23:05;981.7285258030807;42.023101085752955;87.12096739022168;10.182539660644531;2.6671406494140624;1.6208745239257811;-4.318824014412215;-1.7829005108854965;-0.24594487693129774;-14.399999999999999;35.55;-41.25;0.0;0.0;0.0
16.79;2025-05-04 11:23:05;981.8028045916425;42.023101085752955;86.4839801119417;9.868899243164062;1.0534487304687499;2.999934680175781;-3.6553324179236646;-1.9155988301832063;-1.1929525612366414;-10.35;34.35;-17.099999999999998;0.0;0.0;0.0
16.92;2025-05-04 11:23:05;981.8093760843786;42.06533645269438;86.42762731196119;10.149020837402343;2.3511060302734372;4.357447021484375;-3.2796203090687026;-2.2963737263206108;-1.8726983695267176;-5.7;29.099999999999998;-0.8999999999999999;0.0;0.0;0.0
17.09;2025-05-04 11:23:05;981.8864761526861;42.06533645269438;85.7664906412637;12.263100903320312;2.8850130004882812;3.6200329101562496;-4.496021569297711;-2.7213813955572523;-1.8457856581832064;-13.35;10.35;11.7;0.0;0.0;0.0
17.22;2025-05-04 11:23:05;982.014557574727;42.09470541646161;84.66827940318765;12.820949890136719;1.7908628417968748;0.6703764648437499;-5.76731410216794;-1.3344441426564886;-2.0328423251450385;-23.25;-18.3;13.95;0.0;0.0;0.0
17.36;2025-05-04 11:23:05;982.0205639740036;42.13330462598425;84.61678145423181;13.043610644531249;-1.3670891479492187;2.6001030029296874;-5.813678575175572;0.3757121088549619;-1.528428834320611;-27.75;-40.35;-1.2;0.0;0.0;0.0
17.5;2025-05-04 11:23:06;982.1141986981767;42.13330462598425;83.8140046232923;12.797007873535156;-4.024652990722656;1.9632453613281249;-2.135163920748092;0.906238923557252;-2.6630261105648856;-33.9;-44.4;-14.85;0.0;0.0;0.0
17.64;2025-05-04 11:23:06;982.1197701386938;42.16910679133858;83.76623985985238;12.23197628173828;0.8283937744140625;2.925714428710937;-0.025047473923664125;0.49748546612213745;-3.2071425121832062;-45.75;-29.25;-13.799999999999999;0.0;0.0;0.0
17.8;2025-05-04 11:23:06;982.1957964303261;42.19344107560285;83.11447741480141;14.317325927734375;1.9967641845703124;2.882618798828125;-0.8604073755267176;-0.43619909375572524;-1.9036080181984734;-47.699999999999996;-16.2;-14.25;0.0;0.0;0.0
17.95;2025-05-04 11:23:06;982.3043492846446;42.19344107560285;82.18394023275478;12.883199133300781;-0.8762778076171874;1.6448165405273436;0.05435834766412214;-0.8481501010534352;-1.8806922441832064;-48.6;-5.85;-16.2;0.0;0.0;0.0
18.11;2025-05-04 11:23:06;982.3096600931319;42.227565014456204;82.13841703693119;11.145008728027342;0.15322890625;1.5586252807617187;1.3536294418320614;-1.0962266778931298;-2.3344778621832063;-45.6;10.5;-27.15;0.0;0.0;0.0
18.25;2025-05-04 11:23:06;982.3649417940941;42.227565014456204;81.66456510652323;10.000580334472655;4.187458703613281;1.4724340209960938;0.13456355671755726;-1.7296080131755727;-1.2108055479694657;-41.699999999999996;18.15;-34.35;0.0;0.0;0.0
18.41;2025-05-04 11:23:06;982.4438110877617;42.25469634288878;80.988567438235;8.652644799804687;2.655169641113281;2.224213342285156;-1.5236325095267176;-2.061886736396947;-0.27658806311450385;-36.0;21.9;-40.5;0.0;0.0;0.0
18.57;2025-05-04 11:23:07;982.4483386585955;42.28378560223916;80.94976244836937;8.2743609375;2.664746447753906;2.77727392578125;-1.455684574946565;-3.010493195633588;-0.1334977067633588;-29.25;26.849999999999998;-43.949999999999996;0.0;0.0;0.0
18.74;2025-05-04 11:23:07;982.5185428185486;42.28378560223916;80.34807383372504;10.05564697265625;4.043806604003906;1.1037269653320312;-3.0621869184122144;-3.4128515533435118;0.2915099624732825;-25.05;29.099999999999998;-44.699999999999996;0.0;0.0;0.0
18.88;2025-05-04 11:23:07;982.5232011726537;42.313713974840056;80.3081503852134;12.835315100097656;1.9608511596679685;-1.2952630981445312;-5.702030792473283;-2.6422420364580153;-0.4068882200152672;-23.849999999999998;35.1;-32.4;0.0;0.0;0.0
19.02;2025-05-04 11:23:07;982.6293068961025;42.34504086952509;79.39883499945194;13.089100476074218;0.10773907470703124;1.5825672973632812;-6.620260528015268;-0.8017856280458016;-1.650468654076336;-19.05;23.7;0.44999999999999996;0.0;0.0;0.0
19.19;2025-05-04 11:23:07;982.7156727656239;42.34504086952509;78.65874686975695;11.81059678955078;-1.2737152832031249;4.726154077148437;-4.028912826870229;-0.7013292698625955;-2.4229434083816797;-16.5;0.44999999999999996;15.149999999999999;0.0;0.0;0.0
19.34;2025-05-04 11:23:07;982.7200703583251;42.373291015625;78.62106433987732;9.873687646484374;0.5410895751953124;2.8012159423828122;-1.6179602304732827;-1.2313231595877865;-2.944943423450382;-21.9;-8.1;13.799999999999999;0.0;0.0;0.0
19.5;2025-05-04 11:23:07;982.7975208709295;42.373291015625;77.95742105859308;10.077194787597655;3.2130186279296873;2.166752502441406;-2.5497795529312977;-1.0517274423053438;-1.9587657533282443;-28.5;-12.9;9.6;0.0;0.0;0.0
19.64;2025-05-04 11:23:07;982.8026153294657;42.406016432394196;77.91377011166324;10.9941740234375;0.27293898925781246;2.8275521606445313;-2.1564809198320614;-1.348833117038168;-1.4484900877557254;-34.949999999999996;-21.599999999999998;3.5999999999999996;0.0;0.0;0.0
19.81;2025-05-04 11:23:08;982.8861045646491;42.43706362266241;77.19843379706707;11.0707884765625;-0.031124621582031248;1.199495031738281;-0.7346370809312978;-1.2158683352519084;-1.8860214939541986;-42.6;-16.349999999999998;-3.0;0.0;0.0;0.0
19.96;2025-05-04 11:23:08;982.9587055914625;42.43706362266241;76.57642771583033;11.659762084960937;1.0558429321289062;2.7653029174804686;-0.16254211801526722;-1.0341409180610688;-2.0243155255114504;-44.699999999999996;-8.85;-8.4;0.0;0.0;0.0
20.11;2025-05-04 11:23:08;982.9638004747609;42.4697890394316;76.53277892571128;11.449072338867186;3.356670727539062;3.0238766967773434;-0.8273660269465649;-2.1983155305343516;-0.9856447451450383;-48.3;1.7999999999999998;-19.65;0.0;0.0;0.0
20.27;2025-05-04 11:23:08;983.0553524797365;42.4697890394316;75.74846749887818;10.817003100585938;1.4053963745117186;0.8571241943359375;-2.44372748248855;-1.9784839774809162;-0.8508147259389314;-48.15;2.85;-27.15;0.0;0.0;0.0
20.41;2025-05-04 11:23:08;983.1143160237231;42.49104657511073;75.2433675314522;10.137049829101562;1.5825672973632812;2.9089550170898435;-2.972122597282443;-1.4476907002900765;-1.4029250022137407;-44.25;11.549999999999999;-28.799999999999997;0.0;0.0;0.0
20.57;2025-05-04 11:23:08;983.1177999872878;42.51342292845719;75.21352358874783;10.479420666503906;2.3774422485351563;4.745307690429687;-2.241748916167939;-2.5425850657404583;-1.3965299024885498;-38.85;17.849999999999998;-31.5;0.0;0.0;0.0
20.72;2025-05-04 11:23:08;983.2081314409727;42.51342292845719;74.43976619045338;11.427524523925781;1.7238251953125;1.2042834350585936;-2.83462795319084;-2.714453370854962;-1.5484135209618324;-32.1;29.099999999999998;-34.5;0.0;0.0;0.0
20.85;2025-05-04 11:23:08;983.2123559571294;42.54055425688976;74.403581415092;12.095506787109374;2.1499930908203124;0.6440402465820312;-4.989776560580153;-0.9629954336183207;-1.6291516549923666;-23.849999999999998;32.85;-23.4;0.0;0.0;0.0
20.99;2025-05-04 11:23:09;983.3101749266139;42.56796528973916;73.56575559329185;11.188104357910156;-1.2018892333984375;3.2920272827148436;-4.078208387251909;-0.6461715347328245;-1.7200153635877864;-16.95;20.55;4.2;0.0;0.0;0.0
21.15;2025-05-04 11:23:09;983.3972675359757;42.56796528973916;72.81985853151102;10.024522351074218;-1.3455413330078123;2.2577321655273437;-1.2987381691908397;-0.39276570812213746;-2.770410493450382;-12.45;14.399999999999999;10.35;0.0;0.0;0.0
21.29;2025-05-04 11:23:09;983.4014053606836;42.594537209338085;72.78442182347518;9.854534033203125;1.7836802368164062;3.7612908081054686;-0.5715620379389313;-0.8033844029770992;-2.4567841444274814;-7.199999999999999;14.1;12.6;0.0;0.0;0.0
21.46;2025-05-04 11:23:09;983.4848634153203;42.594537209338085;72.06970520860246;10.206481677246094;2.2936451904296873;3.744531396484375;-1.1497856380916032;-1.9726218027328246;-1.0128239189770993;-11.1;10.799999999999999;13.049999999999999;0.0;0.0;0.0
21.61;2025-05-04 11:23:09;983.5813442963575;42.62642351285679;71.24352514170333;11.793837377929687;-0.8882488159179687;1.3024457031249999;-0.37437979641221375;-2.1151792341068703;-1.1900214738625956;-20.25;4.05;11.4;0.0;0.0;0.0
21.8;2025-05-04 11:23:09;983.5853953996442;42.652436023622045;71.20883638005905;12.823344091796875;1.4006079711914061;1.8531120849609375;0.5704961879847329;-1.8122113846259544;-1.7173507387022902;-28.2;10.35;4.35;0.0;0.0;0.0
21.98;2025-05-04 11:23:09;983.6914156714821;42.652436023622045;70.30104779360077;12.11705460205078;3.356670727539062;1.4030021728515625;-0.7189157941068703;-1.9462420163664125;-0.973920395648855;-31.799999999999997;14.399999999999999;-0.15;0.0;0.0;0.0
22.13;2025-05-04 11:23:10;983.6952927603212;42.67732971671998;70.26785208732309;11.092336291503905;2.6288334228515624;1.5275006591796874;-1.9646279280763361;-1.9166646801374048;-0.647237384687023;-35.1;10.95;-3.75;0.0;0.0;0.0
23.63;2025-05-04 11:23:10;983.7892868884368;42.71145365557334;69.46310504037183;9.974244116210937;3.0142998901367184;2.1260510742187497;-2.4330689829465655;-2.2193660671297715;-0.6030046115877863;-41.55;9.45;-6.75;0.0;0.0;0.0
23.77;2025-05-04 11:23:10;983.8525678033694;42.71145365557334;68.92134956574462;9.706093530273437;2.834734765625;1.707065783691406;-3.238851548320611;-2.2918438640152674;-0.7013292698625955;-43.949999999999996;5.3999999999999995;-10.95;0.0;0.0;0.0
23.93;2025-05-04 11:23:10;983.8570115807327;42.739983506090056;68.883306916947;10.014945544433592;2.540247961425781;2.607285607910156;-4.2173018062748096;-2.0570904116030535;-1.1020888526412214;-48.0;3.0;-16.8;0.0;0.0;0.0
24.09;2025-05-04 11:23:10;983.9352014483683;42.739983506090056;68.21395553172043;10.120290417480469;1.0271125122070313;4.015076184082031;-4.183993995206107;-2.2585360529465652;-1.730140938152672;-46.949999999999996;6.8999999999999995;-23.7;0.0;0.0;0.0
24.25;2025-05-04 11:23:10;984.0547426405574;42.76487719918799;67.19069567162383;10.89122335205078;0.9600748657226562;2.0350714111328125;-3.494655537328245;-1.854312457816794;-2.2497427908244276;-42.15;15.899999999999999;-27.599999999999998;0.0;0.0;0.0
24.39;2025-05-04 11:23:10;984.0588383239411;42.791169414370074;67.15563884185013;13.09388887939453;0.7589619262695312;3.1364041748046874;-3.754989388641222;-0.8071148778167939;-2.121307871343512;-36.0;21.599999999999998;-16.349999999999998;0.0;0.0;0.0
24.55;2025-05-04 11:23:10;984.2047121644566;42.791169414370074;65.90711486594586;14.209586853027343;-0.565031591796875;3.986345764160156;-1.1023553151297711;-1.2806187199694659;-2.551644790351145;-29.549999999999997;23.7;-10.35;0.0;0.0;0.0
24.71;2025-05-04 11:23:11;984.2085031549219;42.815503698634345;65.87467004191355;12.342109558105468;1.656787548828125;0.6248866333007812;-0.7015957323511451;-1.413849964244275;-2.397363009480916;-19.349999999999998;30.9;-12.75;0.0;0.0;0.0
24.86;2025-05-04 11:23:11;984.3045647482696;42.839837982898615;65.05256998327714;11.262324609375;2.4756045166015626;1.0606313354492187;-2.8396907404732827;-0.3799755086717557;-1.6035712560916031;-11.25;28.799999999999997;-3.0;0.0;0.0;0.0
25.02;2025-05-04 11:23:11;984.3863533230248;42.839837982898615;64.35267035285021;10.445901843261717;-0.6392518432617187;3.392583752441406;-2.2497427908244276;-0.44952221818320615;-1.5055130603053435;-7.199999999999999;18.75;8.1;0.0;0.0;0.0
25.17;2025-05-04 11:23:11;984.3904497286709;42.86613019808071;64.31761690518826;8.738836059570312;-0.33758243408203126;4.455609289550781;0.9821807327938933;-1.7455957624885499;-2.441595782580153;-6.75;15.149999999999999;8.549999999999999;0.0;0.0;0.0
25.34;2025-05-04 11:23:11;984.4750529657514;42.86613019808071;63.59368299345782;8.525752111816406;3.883395092773437;1.637633935546875;0.4330015438931298;-3.011026120610687;-1.4106524143816794;-10.799999999999999;22.349999999999998;5.1;0.0;0.0;0.0
25.48;2025-05-04 11:23:11;984.5840073470464;42.885429802842026;62.661455148192516;9.866505041503906;3.1507693847656246;-0.7230489013671875;-3.203412037343512;-2.0661501362137407;-0.5481133389465649;-19.05;16.8;6.0;0.0;0.0;0.0
25.65;2025-05-04 11:23:11;984.5885400165247;42.914519062192426;62.622674848901646;11.841721411132811;1.3431471313476562;2.2098481323242187;-5.499252838687023;-0.7671455045343513;-0.7711424418625955;-23.849999999999998;-6.45;12.75;0.0;0.0;0.0
25.79;2025-05-04 11:23:11;984.6968950326066;42.914519062192426;61.695661543636234;12.773065856933593;-2.858676782226562;5.322310290527343;-2.408554434;-1.3765452158473284;-1.9470414038320614;-31.95;-24.3;4.6499999999999995;0.0;0.0;0.0
25.95;2025-05-04 11:23:12;984.7003383236971;42.936615711122045;61.666204393915656;12.164938635253906;0.5889736083984375;2.0925322509765625;0.505479340778626;-1.737868350320611;-2.882058276152672;-41.55;-15.6;-2.25;0.0;0.0;0.0
26.11;2025-05-04 11:23:12;984.8199608706819;42.95283856729823;60.64289242167813;13.223175769042967;5.078101721191406;3.411737365722656;-0.7767381541221374;-1.8007534976183208;-1.7786371110687025;-47.1;-3.15;-11.1;0.0;0.0;0.0
26.25;2025-05-04 11:23:12;984.9541811427764;42.95283856729823;59.49482391081495;12.97896719970703;2.4947581298828125;2.3535002319335936;-2.0901317601832066;-2.541785678274809;-0.7050597447022902;-49.05;0.75;-19.65;0.0;0.0;0.0
26.4;2025-05-04 11:23:12;984.9577120948202;42.975494625061515;59.46462321714978;12.378022583007812;0.3016694091796875;0.718260498046875;-2.239883678748092;-1.596643231389313;-1.6523338914961834;-46.65;5.55;-30.45;0.0;0.0;0.0
26.58;2025-05-04 11:23:12;985.038653496568;42.975494625061515;58.77234488048188;11.061211669921875;1.6472107421875;4.043806604003906;-1.2116049354351146;-1.7128208763969468;-2.1087841343816796;-41.699999999999996;16.2;-33.9;0.0;0.0;0.0
26.74;2025-05-04 11:23:12;985.0433180487006;43.00542299766241;58.73245114618881;10.730811840820312;4.297591979980469;3.31357509765625;-1.94784079129771;-2.8458193777099243;-1.3269831929770994;-30.599999999999998;26.099999999999998;-39.3;0.0;0.0;0.0
26.9;2025-05-04 11:23:12;985.1639161620344;43.03255432609498;57.701084944100174;10.97502041015625;2.760514514160156;1.1875240234375;-4.142425846992366;-2.6115988502748095;-1.2771547076183207;-24.3;33.0;-32.699999999999996;0.0;0.0;0.0
27.02;2025-05-04 11:23:12;985.2500787424661;43.03255432609498;56.96427720815893;11.793837377929687;1.4006079711914061;2.9185318237304685;-5.286349310335878;-1.7892956106106872;-1.8170077094198476;-18.0;30.599999999999998;-11.1;0.0;0.0;0.0
27.16;2025-05-04 11:23:13;985.2534794497503;43.054371270607774;56.93519758676046;12.454637036132812;-0.34715924072265625;4.740519287109374;-3.251641747770993;-1.7781041860916031;-2.7496264193435116;-14.25;19.05;6.75;0.0;0.0;0.0
27.73;2025-05-04 11:23:13;985.3686219311628;43.054371270607774;55.95065631353217;11.516109985351562;1.8770541015625;1.8411410766601561;-2.635846936732825;-1.4519541001068703;-2.8463523026870234;-15.75;11.4;13.65;0.0;0.0;0.0
27.89;2025-05-04 11:23:13;985.4534716141975;43.07702732837106;55.22519730086549;11.489773767089844;1.7525556152343749;1.8052280517578123;-3.7238132774809163;-0.33361103566412215;-2.135163920748092;-14.25;-5.55;16.95;0.0;0.0;0.0
28.04;2025-05-04 11:23:13;985.4585296239193;43.10947304072343;55.18195325950785;11.97100830078125;-0.7254431030273437;5.3199160888671875;-1.4258407762290077;-1.0589219294961834;-1.9824809148091604;-19.05;-20.55;15.899999999999999;0.0;0.0;0.0
28.19;2025-05-04 11:23:13;985.5748614648846;43.10947304072343;54.187410275922744;11.863269226074218;-0.3064578125;4.187458703613281;1.86417156989313;-2.91136914989313;-2.3925666846870235;-29.25;-12.45;9.6;0.0;0.0;0.0
28.34;2025-05-04 11:23:13;985.5772598129041;43.12485678364911;54.166907343628274;14.226346264648436;3.009511486816406;-1.9536685546875;0.26619602606106874;-2.652367611022901;-1.3072649688244278;-42.6;4.35;-6.0;0.0;0.0;0.0
28.49;2025-05-04 11:23:13;985.6629921391442;43.12485678364911;53.43402769698977;13.836091394042969;4.338293408203125;1.1348515869140625;-3.4032589037557255;-1.390667727740458;-0.37917612120610694;-46.65;3.5999999999999996;-9.299999999999999;0.0;0.0;0.0
28.63;2025-05-04 11:23:14;985.7551153953596;43.15814160925197;52.64657294743982;10.433930834960936;0.9457096557617187;3.1603461914062496;-2.976119534610687;-2.560171589984733;-0.5001500910076336;-47.1;-4.35;-16.95;0.0;0.0;0.0
28.79;2025-05-04 11:23:14;985.7573395296978;43.17240653451033;52.62756214219624;9.464279162597656;1.2210428466796874;0.6344634399414062;-2.6534334609770993;-2.4978193676641225;-1.4141164267328246;-49.8;0.75;-32.1;0.0;0.0;0.0
28.94;2025-05-04 11:23:14;985.8148895914954;43.17240653451033;52.13566462506651;9.746794958496093;4.797980126953124;2.6695348510742187;-4.670021574320611;-2.074144010870229;-0.9808484203511452;-45.449999999999996;10.35;-35.699999999999996;0.0;0.0;0.0
29.08;2025-05-04 11:23:14;985.8175063031174;43.18918879952018;52.113299364202945;9.399635717773437;3.1507693847656246;4.908113403320312;-4.72677808438168;-4.0387719389465655;-0.6770811834045802;-42.15;18.75;-37.05;0.0;0.0;0.0
29.24;2025-05-04 11:23:14;985.9086902015893;43.20876810869834;51.33397270700049;11.334150659179686;2.5905261962890624;-3.0789433349609374;-6.463847047236642;-2.6249219747022905;-2.307831613328245;-30.15;29.25;-28.95;0.0;0.0;0.0
29.39;2025-05-04 11:23:14;985.9783051744175;43.20876810869834;50.739029710120754;11.688492504882811;3.143586779785156;0.5530605834960938;-8.731442824793893;0.7023951198167939;-0.4303369190076336;-22.65;10.799999999999999;10.5;0.0;0.0;0.0
29.54;2025-05-04 11:23:14;985.9819688891678;43.2322632797121;50.70771983870767;10.819397302246093;-3.6487633300781246;-1.1755530151367186;-8.25260973287023;0.5510444263206107;-0.38423890848854964;-20.099999999999998;-37.5;4.35;0.0;0.0;0.0
29.7;2025-05-04 11:23:14;986.0608343423727;43.2322632797121;50.03376356907667;8.257601525878906;-0.8379705810546875;-2.3774422485351563;-7.4233784685038176;2.3888362098473284;0.058088822503816806;-20.25;-52.65;-32.25;0.0;0.0;0.0
29.84;2025-05-04 11:23:15;986.1108126284462;43.25603815514272;49.606689405941;6.7277066650390625;-1.695094775390625;0.22026655273437498;-6.2989067668244285;1.4583491998320612;1.5316263841832063;-23.099999999999998;-37.5;-61.65;0.0;0.0;0.0
29.99;2025-05-04 11:23:15;986.1155234436874;43.28624623216044;49.56643547843812;7.314286071777343;-2.3822306518554686;-1.6927005737304686;-3.43496793989313;0.7103889944732825;0.5611700008854963;-23.55;-15.899999999999999;-72.14999999999999;0.0;0.0;0.0
30.15;2025-05-04 11:23:15;986.2048414119391;43.28624623216044;48.80324268780501;8.391676818847655;1.4628572143554686;-3.347093920898437;-4.361724475068703;1.8183400218625956;0.3261500859847329;-28.2;0.75;-67.95;0.0;0.0;0.0
30.3;2025-05-04 11:23:15;986.210206771157;43.32064987543062;48.75739923221457;10.534487304687499;1.0127473022460938;3.5960908935546874;-5.808082862916031;-0.06928024702290077;2.8833905885954203;-40.8;15.6;-44.699999999999996;0.0;0.0;0.0
30.47;2025-05-04 11:23:15;986.3127938854655;43.355333223117626;47.8808988479271;11.793837377929687;-2.2026655273437497;0.229843359375;-1.6360796796946566;-2.541785678274809;0.8167075274045802;-43.35;11.4;-43.949999999999996;0.0;0.0;0.0
30.6;2025-05-04 11:23:15;986.4075074755275;43.355333223117626;47.071735087839826;12.174515441894531;3.2345664428710936;-4.467580297851562;-3.885289545541985;-0.8300306518320612;0.14628790621374047;-38.699999999999996;16.5;-46.05;0.0;0.0;0.0
30.77;2025-05-04 11:23:15;986.4109975090958;43.37770957646407;47.04191999100825;9.56962403564453;3.746925598144531;0.6368576416015624;-7.841991038015268;-1.1529831879541985;2.1775314564274812;-41.55;17.55;-27.9;0.0;0.0;0.0
30.92;2025-05-04 11:23:15;986.5002953799637;43.37770957646407;46.279083981776154;8.123526232910155;0.4381389038085937;-0.8810662109374999;-7.238187038961833;-2.8031853795419854;0.031442573648854964;-46.5;4.5;-21.45;0.0;0.0;0.0
31.08;2025-05-04 11:23:16;986.539742962714;43.3933730238066;45.94211685850905;7.012616662597656;3.3686417358398435;2.2194249389648437;-8.731442824793893;-0.4151485571603054;-1.2792864075267176;-47.1;3.15;-18.45;0.0;0.0;0.0
31.25;2025-05-04 11:23:16;986.543233239199;43.41574937715305;45.912302922633174;6.957550024414062;-2.868253588867187;6.617573388671874;-6.498753633236642;-1.2342542469618323;-1.399194527374046;-46.199999999999996;-6.1499999999999995;-13.049999999999999;0.0;0.0;0.0
31.38;2025-05-04 11:23:16;986.7165762228136;43.41574937715305;44.43171488721749;8.564059338378906;-4.611232397460937;1.0079588989257813;-0.7231791939236641;-1.116477827022901;-4.233822480564886;-46.199999999999996;3.4499999999999997;-18.15;0.0;0.0;0.0
31.57;2025-05-04 11:23:16;986.7201977305839;43.43896484375;44.40078446463562;13.939042065429687;7.436390356445312;0.4644751220703125;-1.9622297656793894;-0.13456355671755726;-3.6049710075877863;-32.55;27.15;-21.0;0.0;0.0;0.0
31.7;2025-05-04 11:23:16;986.8573264420597;43.44875449833907;43.22966891269471;14.68363878173828;2.612074011230469;4.824316345214844;-4.696134898198474;-0.8369586765343513;-0.019984686641221373;-27.45;22.349999999999998;-5.1;0.0;0.0;0.0
31.84;2025-05-04 11:23:16;987.028132025467;43.44875449833907;41.7711282099926;13.079523669433593;-4.551377355957031;-0.51714755859375;-0.17932925479389314;-0.7109219194503817;-2.274523802259542;-29.549999999999997;15.149999999999999;0.44999999999999996;0.0;0.0;0.0
31.99;2025-05-04 11:23:16;987.0315359448063;43.47057144285188;41.742063585568424;9.60793126220703;0.5027823486328125;-0.028730419921875;0.6024716866106871;0.5734272753587787;-3.57459428389313;-17.849999999999998;25.5;-1.05;0.0;0.0;0.0
32.12;2025-05-04 11:23:17;987.087822870657;43.47057144285188;41.26146515056449;8.020575561523437;6.351817004394531;6.4643444824218745;-0.09192955854961832;-1.078640153648855;-1.9862113896488551;-2.6999999999999997;29.549999999999997;-0.15;0.0;0.0;0.0
32.25;2025-05-04 11:23:17;987.0911832542306;43.49210868294783;41.23277366400453;6.612784985351562;6.758831286621094;7.733271362304687;-0.18545789203053437;-4.930355425633588;1.0882328032366413;-8.25;27.15;0.15;0.0;0.0;0.0
32.38;2025-05-04 11:23:17;987.2156577821371;43.50917065237451;40.17004617176874;9.550470422363281;0.8475473876953125;-4.347870214843749;-1.448756550244275;-5.291945022595421;1.5446830461221377;-34.199999999999996;23.55;-9.75;0.0;0.0;0.0
32.51;2025-05-04 11:23:17;987.2944473775564;43.50917065237451;39.4974194823524;12.339715356445312;2.1643583007812497;-8.030152368164062;-7.787899152839695;-0.21396937830534352;-0.35945789705343517;-40.949999999999996;10.049999999999999;-10.5;0.0;0.0;0.0
32.63;2025-05-04 11:23:17;987.2981573019603;43.532945527805126;39.46574893326014;10.338162768554687;-1.924938134765625;2.4396914916992185;-8.731442824793893;0.566232788167939;0.9661929834809162;-38.55;-22.95;-0.44999999999999996;0.0;0.0;0.0
32.76;2025-05-04 11:23:17;987.4111071123164;43.532945527805126;38.501575270403166;9.497797985839844;-7.752424975585937;1.1133037719726562;-1.6019724811603056;0.6544318718778627;-2.3779112478167943;-40.35;-36.449999999999996;-14.399999999999999;0.0;0.0;0.0
32.89;2025-05-04 11:23:17;987.4987503203879;43.55112631489911;37.75348793103483;6.375759020996093;2.935291235351562;4.800374328613281;3.6137642697099244;-0.717050556687023;-4.5962114649923675;-45.6;-10.2;-12.15;0.0;0.0;0.0
33.02;2025-05-04 11:23:17;987.4999288953851;43.55867833415354;37.743428452996795;8.765172277832031;10.577582934570312;2.729389892578125;-0.33067994829007635;-3.6220246068549624;0.08846554619847329;-47.25;6.1499999999999995;-27.75;0.0;0.0;0.0
33.15;2025-05-04 11:23:18;987.6462154326239;43.55867833415354;36.49490608179613;12.145785021972655;0.6392518432617187;-3.3399113159179685;-5.300471822229008;-3.353963343374046;1.0866340283053437;-45.15;2.4;-46.949999999999996;0.0;0.0;0.0
33.29;2025-05-04 11:23:18;987.6494458615208;43.579376460999015;36.46733679470118;10.941501586914061;0.3495534423828125;-3.6152445068359373;-8.424744500473283;0.3706493215725191;-0.8753292748854963;-41.25;18.15;-35.699999999999996;0.0;0.0;0.0
33.41;2025-05-04 11:23:18;987.7418697286769;43.59224286417323;35.678599353030286;9.579200842285156;-4.015076184082031;0.7852981445312499;-8.310432092885497;1.804750434946565;0.5270628023511451;-37.5;4.5;0.3;0.0;0.0;0.0
33.54;2025-05-04 11:23:18;987.8230372195881;43.59224286417323;34.98597215446593;8.88009395751953;-5.276820458984375;-0.5674257934570313;-3.0771088177709927;2.0704135360305345;-0.6120643361984733;-30.599999999999998;-21.75;9.6;0.0;0.0;0.0
33.67;2025-05-04 11:23:18;987.8253074653363;43.60678749384843;34.966600110773925;7.558494641113281;-3.095702746582031;2.118868469238281;0.2643307886412214;2.09466162248855;-1.6544655914045803;-22.5;-26.099999999999998;11.1;0.0;0.0;0.0
33.79;2025-05-04 11:23:18;987.9153087080151;43.60678749384843;34.19864709219111;7.426813549804687;-1.6328455322265625;4.2305543334960936;3.5458163351297713;0.10072282067175574;-2.6664901229160307;-16.95;-11.4;14.399999999999999;0.0;0.0;0.0
33.92;2025-05-04 11:23:18;988.0430054751291;43.62440887210876;33.10914691839996;9.085995300292968;1.9129671264648436;0.8762778076171874;2.7461624069923665;-1.2707596078931298;-1.0818377035114506;-18.9;12.75;9.45;0.0;0.0;0.0
34.05;2025-05-04 11:23:18;988.0454943084942;43.64035202386812;33.08791349334866;10.338162768554687;-0.5961562133789062;-0.6057330200195312;0.6909372328091604;0.02744563632061069;-0.47430322961832067;-19.349999999999998;21.599999999999998;1.05;0.0;0.0;0.0
34.18;2025-05-04 11:23:19;988.1539581052978;43.64035202386812;32.16259915296524;11.719617126464843;0.062249243164062495;4.953603234863281;2.350199149007634;-0.05329249770992367;-1.3355099926106873;-16.2;27.0;-2.55;0.0;0.0;0.0
34.31;2025-05-04 11:23:19;988.1560540902349;43.653777835875985;32.14471892819142;11.705251916503906;4.592078784179687;3.4524387939453125;2.2366861288854962;-2.3563277862442753;-0.19451761664122139;-14.25;35.25;-17.7;0.0;0.0;0.0
34.44;2025-05-04 11:23:19;988.317125104338;43.653777835875985;30.770761808278362;11.348515869140625;2.7820623291015623;-0.6679822631835937;0.5161378403206107;-2.4104196714198474;0.8486830260305344;-19.5;35.699999999999996;-28.95;0.0;0.0;0.0
34.56;2025-05-04 11:23:19;988.4318433308382;43.67083980530266;29.79231066403016;11.6837041015625;1.149216796875;-1.5179238525390624;-1.3514977419236642;-0.9376814972061069;0.45565085541984734;-21.0;32.55;-29.7;0.0;0.0;0.0
34.69;2025-05-04 11:23:19;988.4344637063255;43.6876220703125;29.769962112750996;10.826579907226561;2.6575638427734374;2.612074011230469;-1.8740306819694659;-0.96352835859542;0.37224809650381685;-24.45;31.95;-22.95;0.0;0.0;0.0
34.83;2025-05-04 11:23:19;988.5597596402904;43.6876220703125;28.701399259976913;10.153809240722655;3.318363500976562;2.2170307373046874;-1.482330823801527;-2.5785575016946565;0.7540888425954199;-28.65;30.15;-20.099999999999998;0.0;0.0;0.0
34.94;2025-05-04 11:23:19;988.563603123006;43.71223605899361;28.668622572728427;10.627861169433594;3.763685009765625;-1.197100830078125;-2.859408964625955;-2.7517581192519085;0.7985880781832062;-35.699999999999996;23.55;-19.65;0.0;0.0;0.0
35.07;2025-05-04 11:23:19;988.6836664338683;43.71223605899361;27.6447912710085;11.21683477783203;4.6639048339843745;0.4261678955078125;-6.382575988229009;-2.2316233416030538;0.9144992607022902;-39.75;12.299999999999999;-12.0;0.0;0.0;0.0
35.2;2025-05-04 11:23:20;988.8233906215538;43.71223605899361;26.453429989550873;11.192892761230468;0.5578489868164063;1.2713210815429687;-6.811847057282444;-2.7840000803664124;-0.5862174748091604;-48.0;-1.7999999999999998;-15.299999999999999;0.0;0.0;0.0
35.33;2025-05-04 11:23:20;988.8298992681833;43.753912017101385;26.397937197281692;10.589553942871094;0.5003881469726562;0.4285620971679687;-6.761752109435115;-0.9283553101068703;-2.3352772496488554;-48.9;-1.65;-21.75;0.0;0.0;0.0
35.46;2025-05-04 11:23:20;988.9399009946193;43.753912017101385;25.460106011878512;9.871293444824218;-0.9361328491210937;5.049371301269531;-5.338575958091604;0.05702297254961833;-2.1122481467328247;-46.199999999999996;1.7999999999999998;-13.799999999999999;0.0;0.0;0.0
35.58;2025-05-04 11:23:20;988.942653139523;43.771533395361715;25.43664339670287;9.435548742675781;-3.0238766967773434;5.999869360351562;-0.1409586564427481;-1.5177703347786262;-3.352631030931298;-42.0;10.799999999999999;-10.95;0.0;0.0;0.0
35.71;2025-05-04 11:23:20;989.0975776853558;43.77908541461615;24.115964247984238;12.696451403808593;3.3494881225585935;1.8339584716796873;1.6837764651450382;-3.594845433022901;-2.9566677729465654;-33.3;28.799999999999997;-26.849999999999998;0.0;0.0;0.0
35.84;2025-05-04 11:23:20;989.2352491775823;43.77908541461615;22.942502070875726;14.065934753417968;3.787627026367187;-3.778050219726562;-4.967127249053435;-1.140192988503817;-1.083702940931298;-24.15;32.85;-28.799999999999997;0.0;0.0;0.0
35.98;2025-05-04 11:23:20;989.2380017644127;43.79670679287648;22.91904136127701;11.444283935546874;-0.6536170532226562;0.7445967163085937;-6.611467265893131;0.3738468714351145;-0.5904808746259542;-19.8;22.2;4.5;0.0;0.0;0.0
36.1;2025-05-04 11:23:20;989.3503751730315;43.79670679287648;21.961311101572015;9.440337145996093;-5.370194323730469;3.1411925781249996;-2.0626861238625955;0.5214670900916031;-2.2081746426106874;-14.85;1.7999999999999998;14.85;0.0;0.0;0.0
36.24;2025-05-04 11:23:21;989.3520355662989;43.80733556071604;21.9471606482955;6.730100866699218;0.43574470214843747;5.398924743652343;1.6443400168396949;-1.4604808997404581;-3.5047811118931302;-12.0;7.5;12.9;0.0;0.0;0.0
36.37;2025-05-04 11:23:21;989.456205541956;43.83194954939715;21.05942605554906;6.921636999511718;4.874594580078124;1.1947066284179686;0.11377948261068704;-3.343038381343512;-1.2073415356183208;-19.349999999999998;16.95;6.45;0.0;0.0;0.0
36.49;2025-05-04 11:23:21;989.5761831045503;43.83194954939715;20.037073268745843;8.659827404785156;4.185064501953125;-1.1372457885742187;-4.313494764641222;-2.224428854412214;0.24647780190839697;-30.15;8.85;6.1499999999999995;0.0;0.0;0.0
36.62;2025-05-04 11:23:21;989.5779747989552;43.84341743048721;20.02180664327938;11.420341918945311;0.32082302246093747;1.5203180541992187;-4.878395240366412;-2.316624875450382;-0.24781011435114506;-40.35;-13.65;0.8999999999999999;0.0;0.0;0.0
36.75;2025-05-04 11:23:21;989.730851016548;43.853766493909944;18.719265160264523;13.433865515136718;-0.47884033203125;-0.9720458740234375;-3.3536968808854963;-1.1591118251908399;-2.2001807679541985;-47.25;-17.7;-12.75;0.0;0.0;0.0
36.88;2025-05-04 11:23:21;989.8387671533371;43.853766493909944;17.799892269015334;10.788272680664061;2.195482922363281;2.147598889160156;-4.236753567938932;0.22329556540458018;-1.9009433933129773;-48.15;-11.7;-18.75;0.0;0.0;0.0
37.01;2025-05-04 11:23:21;989.8415206378905;43.871387872170274;17.77643549469861;9.344569079589844;0.5051765502929687;4.50109912109375;-1.9656937780305346;-1.2561041710229008;-1.5374885589312977;-48.75;-5.3999999999999995;-20.099999999999998;0.0;0.0;0.0
37.14;2025-05-04 11:23:22;989.9626642289164;43.871387872170274;16.744472601724514;8.204929089355469;1.1372457885742187;2.291250988769531;-0.37811027125190844;-1.8199387967938931;-2.133032220839695;-47.699999999999996;3.0;-27.0;0.0;0.0;0.0
37.28;2025-05-04 11:23:22;990.0794765567125;43.884813684178155;15.749502447167442;8.827421520996094;5.166687182617188;3.3016040893554686;-2.1492864326412215;-2.8572772647175575;-0.7503583677557253;-41.55;13.65;-37.8;0.0;0.0;0.0
37.41;2025-05-04 11:23:22;990.0827112287101;43.905511811023615;15.721951895193358;11.03248125;3.318363500976562;-2.001552587890625;-4.79579186891603;-2.6134640876946564;-0.5406523892671756;-35.699999999999996;22.8;-39.75;0.0;0.0;0.0
37.55;2025-05-04 11:23:22;990.2282946773901;43.905511811023615;14.482054830307629;10.802637890625;1.3263877197265623;-0.28969840087890625;-7.6013754108549625;-0.472704454687023;-0.9861776701221375;-32.4;26.25;-16.8;0.0;0.0;0.0
37.68;2025-05-04 11:23:22;990.2304367265949;43.91921732744834;14.463812645969824;12.021286535644531;-4.058171813964844;4.299986181640625;-5.335644870717558;-0.35705973465648855;-1.419445676503817;-29.4;6.8999999999999995;9.45;0.0;0.0;0.0
37.81;2025-05-04 11:23:22;990.3603477979611;43.93963574987697;13.357519770739337;11.099518896484375;-1.9608511596679685;3.3590649291992185;1.4596815122748092;-1.7226799884732826;-4.157880671328245;-26.25;10.2;6.3;0.0;0.0;0.0
37.94;2025-05-04 11:23:22;990.463398107778;43.93963574987697;12.480050546499685;11.396399902343749;6.382941625976562;-2.798821740722656;-0.86573662529771;-1.9227933173740461;-2.593745863541985;-24.45;24.75;-4.35;0.0;0.0;0.0
38.08;2025-05-04 11:23:22;990.4658027531003;43.95501949280266;12.459575971346505;9.665392102050781;4.69263525390625;-0.24660277099609373;-6.73057599827481;-0.2121041408854962;0.5174701527633588;-22.5;7.05;12.15;0.0;0.0;0.0
38.21;2025-05-04 11:23:23;990.5824756937276;43.95501949280266;11.466201769480902;9.114725720214842;-2.3295582153320313;-1.8459294799804686;-6.86247493010687;-0.007727412167938932;0.3757121088549619;-24.9;-32.4;6.8999999999999995;0.0;0.0;0.0
38.35;2025-05-04 11:23:23;990.6771610884093;43.97599732406496;10.660103087306398;7.625532287597656;-3.4261025756835934;-0.3591302490234375;-5.158980240809161;1.7730413988091605;-0.46204595514503816;-23.099999999999998;-49.5;-14.25;0.0;0.0;0.0
38.47;2025-05-04 11:23:23;990.6799158160954;43.99361870232529;10.636651804881218;7.1778165771484375;-4.754884497070313;3.1364041748046874;-1.057056692076336;1.7954242478473283;-1.4106524143816794;-26.55;-51.15;-28.2;0.0;0.0;0.0
38.6;2025-05-04 11:23:23;990.793362187445;43.99361870232529;9.67091694132514;7.503428002929687;-0.2825157958984375;4.632780212402343;1.2374517968244276;-0.3778438087633588;-1.9704901028244277;-34.65;-43.65;-24.0;0.0;0.0;0.0
38.73;2025-05-04 11:23:23;990.7971665729668;44.01795298658956;9.638532902403682;8.355763793945313;0.6655880615234374;0.8379705810546875;-0.13296478178625953;-0.9901746074503818;-0.576624825221374;-41.55;-36.9;-24.9;0.0;0.0;0.0
38.86;2025-05-04 11:23:23;990.9308986328161;44.03753229576772;8.500230582752655;10.000580334472655;-1.7741034301757812;-0.009576806640625;-1.2214640475114504;0.15774579322137408;-0.44685759329770997;-41.25;-34.8;-28.799999999999997;0.0;0.0;0.0
38.99;2025-05-04 11:23:23;991.0783875852186;44.03753229576772;7.2449763926674615;11.159373937988281;-4.582501977539062;-0.2920926025390625;-0.08606738380152673;1.4327688009312978;-1.4887259235267176;-46.949999999999996;-30.15;-29.549999999999997;0.0;0.0;0.0
39.11;2025-05-04 11:23:24;991.0817989363359;44.05934924028051;7.215944734721619;13.72595811767578;-1.2473790649414063;7.4962453979492185;4.638312538183206;-0.49109036639694664;-3.624156306763359;-48.3;-15.45;-19.349999999999998;0.0;0.0;0.0
39.24;2025-05-04 11:23:24;991.2372843290882;44.05934924028051;5.892801612481517;15.646107849121092;5.609614489746093;-0.9959878906249999;1.718949513633588;-2.6315835369160308;-0.3719816340152672;-47.85;2.4;-34.05;0.0;0.0;0.0
39.38;2025-05-04 11:23:24;991.3982295392836;44.07389386995571;4.523373759274704;13.402740893554686;1.158793603515625;-0.20829554443359374;-1.210006160503817;-1.1497856380916032;-0.017053599267175572;-45.6;1.3499999999999999;-43.65;0.0;0.0;0.0
39.52;2025-05-04 11:23:24;991.4014665094867;44.09459199680117;4.495833331454108;10.752359655761719;0.7134720947265625;3.2321722412109373;0.47750077948091607;-0.979516107908397;-1.2640980456793893;-42.449999999999996;5.3999999999999995;-48.15;0.0;0.0;0.0
39.65;2025-05-04 11:23:24;991.4635669158079;44.09459199680117;3.967491697190717;9.363722692871093;9.813832604980469;2.2266075439453124;-0.7018621948396947;-2.7866647052519085;0.4020918952213741;-34.65;10.049999999999999;-58.8;0.0;0.0;0.0
39.78;2025-05-04 11:23:24;991.4656228996505;44.107738104392226;3.9500001303890153;11.295843432617186;8.590395556640624;0.031124621582031248;-7.095363145099237;-4.620726013938931;3.6105667198473284;-25.8;19.05;-57.449999999999996;0.0;0.0;0.0
39.9;2025-05-04 11:23:24;991.6190574431134;44.1348694328248;2.6447174111380036;13.651737866210937;2.0278888061523435;-8.128314636230469;-8.731442824793893;-2.1436907203816795;-1.3187228558320612;-21.0;33.449999999999996;-26.4;0.0;0.0;0.0
40.03;2025-05-04 11:23:24;991.7138304424807;44.1348694328248;1.838555904397846;11.961431494140625;-2.7054478759765623;0.36391865234375;-8.731442824793893;0.6530995594351146;0.4830964917404581;-15.75;-29.099999999999998;12.9;0.0;0.0;0.0
40.15;2025-05-04 11:23:25;991.7163679550415;44.151092289000985;1.816972080974879;9.667786303710937;-3.0238766967773434;-6.023811376953125;-8.731442824793893;1.9225268548854964;0.35066463493129774;-15.45;-54.3;-42.9;0.0;0.0;0.0
40.3;2025-05-04 11:23:25;991.7744475000211;44.151092289000985;1.3229656107301702;7.058106494140625;0.3112462158203125;-2.461239306640625;-8.731442824793893;0.6515007845038169;2.81357741659542;-20.55;-6.3;-71.7;0.0;0.0;0.0
40.43;2025-05-04 11:23:25;991.8743256976097;44.162280465674215;0.473487631067081;8.992621435546875;2.858676782226562;-1.2713210815429687;-8.731442824793893;-1.924125629816794;0.9544686339847329;-23.4;32.4;-21.45;0.0;0.0;0.0